Time(s),Position(V)
0.349000,1.700553
3.363000,1.689801
6.363000,1.674473
9.361000,1.655881
12.361000,1.638755
15.362000,1.615037
18.362000,1.593413
21.362000,1.566217
24.362000,1.537495
27.360000,1.508008
30.360000,1.475125
33.360000,1.445043
36.360000,1.406704
39.361000,1.370724
42.359000,1.330879
45.359000,1.291687
48.359000,1.248452
51.359000,1.205765
54.359000,1.161831
57.357000,1.119888
60.358000,1.075110
63.358000,1.025951
66.358000,0.974887
69.358000,0.923175
72.356000,0.874617
75.356000,0.822605
78.357000,0.768136
81.356000,0.713992
84.356000,0.656647
87.356000,0.600189
90.356000,0.540844
93.356000,0.483118
96.354000,0.422043
99.354000,0.361278
102.354000,0.301121
105.355000,0.238618
108.355000,0.177007
111.355000,0.113933
114.353000,0.049653
117.353000,-0.015399
120.353000,-0.080452
123.353000,-0.144926
126.354000,-0.207547
129.352000,-0.273558
132.352000,-0.339096
135.352000,-0.406215
138.352000,-0.472549
141.352000,-0.539868
144.352000,-0.609207
147.351000,-0.674351
150.351000,-0.740324
153.351000,-0.803796
156.351000,-0.868083
159.351000,-0.931350
162.349000,-0.993326
165.349000,-1.057243
168.349000,-1.121217
171.350000,-1.185212
174.350000,-1.251427
177.348000,-1.315153
180.348000,-1.381344
183.348000,-1.444710
186.348000,-1.505767
189.348000,-1.565622
192.347000,-1.622607
195.347000,-1.677352
198.347000,-1.728748
201.347000,-1.779778
204.347000,-1.827367
207.347000,-1.877757
210.345000,-1.927634
213.346000,-1.979707
216.346000,-2.031076
219.346000,-2.089112
222.346000,-2.143347
225.344000,-2.192829
228.344000,-2.242319
231.344000,-2.286583
234.344000,-2.326227
237.345000,-2.363849
240.343000,-2.397783
243.343000,-2.430638
246.343000,-2.459323
249.343000,-2.486825
252.343000,-2.517933
255.343000,-2.552322
258.343000,-2.582608
261.343000,-2.610776
264.342000,-2.643737
267.342000,-2.674339
270.341000,-2.703316
273.341000,-2.725433
276.341000,-2.748566
279.340000,-2.766352
282.340000,-2.785280
285.340000,-2.800136
288.340000,-2.814767
291.340000,-2.829066
294.340000,-2.835494
297.338000,-2.843116
300.338000,-2.850982
303.339000,-2.852906
306.339000,-2.848307
309.339000,-2.842167
312.337000,-2.836017
315.337000,-2.831132
318.337000,-2.825924
321.337000,-2.820937
324.338000,-2.816661
327.338000,-2.800826
330.336000,-2.797090
333.336000,-2.782935
336.336000,-2.763623
339.335000,-2.748529
342.335000,-2.731015
345.336000,-2.710829
348.336000,-2.684065
351.336000,-2.657655
354.334000,-2.630187
357.334000,-2.602610
360.334000,-2.572525
363.334000,-2.542460
366.334000,-2.512705
369.333000,-2.483487
372.333000,-2.456882
375.333000,-2.426851
378.333000,-2.397433
381.333000,-2.368184
384.332000,-2.339190
387.332000,-2.303958
390.333000,-2.269042
393.331000,-2.230692
396.331000,-2.185816
399.331000,-2.141491
402.331000,-2.093228
405.331000,-2.044919
408.329000,-1.995565
411.330000,-1.946684
414.330000,-1.900204
417.330000,-1.853328
420.330000,-1.808258
423.328000,-1.765548
426.328000,-1.717285
429.328000,-1.677026
432.328000,-1.631038
435.329000,-1.582585
438.329000,-1.531093
441.327000,-1.478103
444.327000,-1.438798
447.327000,-1.374062
450.327000,-1.311699
453.327000,-1.250587
456.326000,-1.197698
459.327000,-1.146665
462.327000,-1.096071
465.326000,-1.043220
468.326000,-0.992588
471.324000,-0.943558
474.324000,-0.888847
477.325000,-0.840979
480.325000,-0.791051
483.325000,-0.740290
486.325000,-0.689336
489.323000,-0.638286
492.323000,-0.583477
495.323000,-0.531424
498.323000,-0.481836
501.324000,-0.434900
504.322000,-0.386434
507.322000,-0.339484
510.322000,-0.292088
513.322000,-0.246464
516.322000,-0.198124
519.320000,-0.155077
522.321000,-0.113610
525.321000,-0.068944
528.321000,-0.026754
531.321000,0.011623
534.321000,0.052498
537.319000,0.088593
540.319000,0.128581
543.320000,0.170184
546.320000,0.203125
549.320000,0.242035
552.318000,0.274802
555.318000,0.311265
558.318000,0.344535
561.318000,0.373339
564.318000,0.403013
567.317000,0.430980
570.317000,0.455868
573.317000,0.476717
576.317000,0.505857
579.317000,0.526243
582.317000,0.550567
585.315000,0.573625
588.316000,0.592196
591.316000,0.608504
594.316000,0.628176
597.316000,0.645371
600.314000,0.656473
603.314000,0.667461
606.314000,0.683040
609.315000,0.694962
612.315000,0.697185
615.313000,0.702883
618.313000,0.712939
621.313000,0.714407
624.313000,0.712497
627.313000,0.721379
630.311000,0.717392
633.312000,0.712996
636.312000,0.707081
639.312000,0.705086
642.312000,0.700816
645.312000,0.691960
648.310000,0.685012
651.310000,0.674759
654.311000,0.665795
657.311000,0.656769
660.311000,0.643685
663.309000,0.628268
666.309000,0.610146
669.310000,0.591581
672.308000,0.572340
675.309000,0.552249
678.309000,0.531152
681.309000,0.504847
684.309000,0.485249
687.307000,0.460393
690.307000,0.434451
693.307000,0.410964
696.307000,0.382361
699.308000,0.356107
702.307000,0.331505
705.307000,0.302457
708.307000,0.269737
711.305000,0.240641
714.305000,0.209288
717.305000,0.177160
720.306000,0.146034
723.306000,0.111186
726.306000,0.076576
729.304000,0.041242
732.304000,0.006986
735.304000,-0.029755
738.304000,-0.066249
741.305000,-0.105002
744.303000,-0.140381
747.303000,-0.176789
750.303000,-0.216960
753.303000,-0.256102
756.303000,-0.294669
759.301000,-0.335782
762.301000,-0.376599
765.302000,-0.419028
768.302000,-0.459855
771.302000,-0.500979
774.300000,-0.544056
777.300000,-0.585822
780.300000,-0.630148
783.300000,-0.670017
786.301000,-0.712734
789.301000,-0.755064
792.299000,-0.795719
795.299000,-0.836278
798.299000,-0.877540
801.298000,-0.918024
804.298000,-0.957570
807.299000,-1.000152
810.299000,-1.040759
813.299000,-1.083748
816.297000,-1.124688
819.297000,-1.166505
822.297000,-1.209433
825.297000,-1.251787
828.297000,-1.293702
831.296000,-1.336661
834.296000,-1.379114
837.296000,-1.421274
840.296000,-1.455897
843.296000,-1.499553
846.296000,-1.537627
849.294000,-1.573587
852.295000,-1.610223
855.295000,-1.644765
858.295000,-1.674857
861.295000,-1.708620
864.293000,-1.739501
867.293000,-1.769994
870.293000,-1.799467
873.294000,-1.826534
876.294000,-1.853515
879.292000,-1.883312
882.292000,-1.910501
885.292000,-1.937186
888.292000,-1.965609
891.292000,-1.991843
894.290000,-2.017842
897.291000,-2.044732
900.291000,-2.071377
903.291000,-2.097440
906.291000,-2.121026
909.291000,-2.144642
912.289000,-2.165549
915.289000,-2.186751
918.290000,-2.206111
921.290000,-2.225447
924.290000,-2.239443
927.288000,-2.254869
930.288000,-2.268243
933.288000,-2.279859
936.288000,-2.292977
939.289000,-2.300616
942.287000,-2.310600
945.287000,-2.314897
948.287000,-2.321706
951.287000,-2.327764
954.287000,-2.327057
957.287000,-2.333594
960.286000,-2.333798
963.286000,-2.331058
966.285000,-2.319463
969.285000,-2.334315
972.285000,-2.329110
975.285000,-2.312980
978.285000,-2.314037
981.283000,-2.299576
984.284000,-2.300341
987.284000,-2.287950
990.284000,-2.287219
993.284000,-2.270922
996.284000,-2.260686
999.282000,-2.249624
1002.282000,-2.234714
1005.283000,-2.219508
1008.283000,-2.204754
1011.283000,-2.186795
1014.281000,-2.173894
1017.281000,-2.152121
1020.281000,-2.130092
1023.281000,-2.108523
1026.281000,-2.088061
1029.280000,-2.064078
1032.280000,-2.037678
1035.280000,-2.012841
1038.280000,-1.989069
1041.280000,-1.962043
1044.280000,-1.936928
1047.278000,-1.911782
1050.279000,-1.887541
1053.279000,-1.869700
1056.279000,-1.832187
1059.279000,-1.805634
1062.277000,-1.781025
1065.277000,-1.754397
1068.277000,-1.725142
1071.278000,-1.702413
1074.278000,-1.676264
1077.276000,-1.647413
1080.276000,-1.617960
1083.276000,-1.587147
1086.276000,-1.557038
1089.276000,-1.524410
1092.277000,-1.490412
1095.275000,-1.467575
1098.275000,-1.441263
1101.275000,-1.388285
1104.275000,-1.354308
1107.274000,-1.315901
1110.274000,-1.279693
1113.274000,-1.245240
1116.275000,-1.209552
1119.273000,-1.175853
1122.273000,-1.142542
1125.273000,-1.110060
1128.273000,-1.075046
1131.273000,-1.039929
1134.271000,-1.009297
1137.272000,-0.975897
1140.272000,-0.944244
1143.272000,-0.912082
1146.272000,-0.877533
1149.270000,-0.846547
1152.270000,-0.815762
1155.270000,-0.785401
1158.271000,-0.756445
1161.271000,-0.722426
1164.271000,-0.691501
1167.269000,-0.661402
1170.269000,-0.628863
1173.269000,-0.598631
1176.269000,-0.566826
1179.269000,-0.536173
1182.268000,-0.505592
1185.268000,-0.475612
1188.268000,-0.450700
1191.268000,-0.424280
1194.268000,-0.396748
1197.266000,-0.374845
1200.266000,-0.346181
1203.267000,-0.338409
1206.267000,-0.302246
1209.267000,-0.279694
1212.265000,-0.258600
1215.265000,-0.235470
1218.265000,-0.218167
1221.265000,-0.203220
1224.266000,-0.178842
1227.266000,-0.159703
1230.264000,-0.146894
1233.265000,-0.129836
1236.265000,-0.110856
1239.263000,-0.097881
1242.263000,-0.085904
1245.263000,-0.071321
1248.264000,-0.061591
1251.264000,-0.045420
1254.262000,-0.040950
1257.262000,-0.036078
1260.262000,-0.019503
1263.262000,-0.018908
1266.262000,-0.006177
1269.261000,-0.003331
1272.261000,0.005555
1275.261000,0.009168
1278.261000,-0.010083
1281.261000,0.009502
1284.261000,0.000126
1287.259000,0.003454
1290.260000,0.002499
1293.260000,-0.015080
1296.260000,-0.020349
1299.260000,-0.025173
1302.258000,-0.027243
1305.258000,-0.030177
1308.258000,-0.041830
1311.258000,-0.039729
1314.259000,-0.059800
1317.257000,-0.068125
1320.257000,-0.078184
1323.257000,-0.092778
1326.257000,-0.101702
1329.257000,-0.113511
1332.255000,-0.123309
1335.256000,-0.140357
1338.256000,-0.149304
1341.256000,-0.166424
1344.256000,-0.181752
1347.256000,-0.197801
1350.254000,-0.216182
1353.254000,-0.233526
1356.255000,-0.253494
1359.255000,-0.274228
1362.255000,-0.293860
1365.253000,-0.312628
1368.253000,-0.334548
1371.253000,-0.355165
1374.253000,-0.380423
1377.253000,-0.400059
1380.252000,-0.426017
1383.252000,-0.449443
1386.252000,-0.473236
1389.252000,-0.497477
1392.252000,-0.523354
1395.252000,-0.548581
1398.250000,-0.575179
1401.251000,-0.603194
1404.251000,-0.629318
1407.251000,-0.655855
1410.251000,-0.682418
1413.249000,-0.709634
1416.249000,-0.737758
1419.249000,-0.765793
1422.250000,-0.792921
1425.250000,-0.818543
1428.248000,-0.845912
1431.248000,-0.874708
1434.248000,-0.903465
1437.248000,-0.930936
1440.248000,-0.956693
1443.248000,-0.985619
1446.247000,-1.012438
1449.247000,-1.039790
1452.247000,-1.067189
1455.247000,-1.094773
1458.247000,-1.123131
1461.245000,-1.149395
1464.245000,-1.179406
1467.246000,-1.207438
1470.246000,-1.237836
1473.246000,-1.265313
1476.244000,-1.294651
1479.244000,-1.323227
1482.244000,-1.352608
1485.244000,-1.380705
1488.245000,-1.409440
1491.244000,-1.436925
1494.244000,-1.459909
1497.244000,-1.486992
1500.242000,-1.514338
1503.242000,-1.539942
1506.242000,-1.565649
1509.242000,-1.588759
1512.243000,-1.611052
1515.243000,-1.631986
1518.241000,-1.653443
1521.241000,-1.673745
1524.241000,-1.692857
1527.241000,-1.709983
1530.241000,-1.729030
1533.240000,-1.744933
1536.240000,-1.764239
1539.240000,-1.779699
1542.240000,-1.796214
1545.240000,-1.809339
1548.238000,-1.821360
1551.238000,-1.840373
1554.239000,-1.852111
1557.239000,-1.864931
1560.239000,-1.877818
1563.237000,-1.889047
1566.237000,-1.901563
1569.237000,-1.909637
1572.237000,-1.922416
1575.237000,-1.932920
1578.238000,-1.942891
1581.236000,-1.950006
1584.236000,-1.959130
1587.236000,-1.967187
1590.236000,-1.974944
1593.236000,-1.978245
1596.234000,-1.975294
1599.235000,-1.984119
1602.235000,-1.987916
1605.235000,-1.990262
1608.235000,-1.993984
1611.235000,-1.998591
1614.233000,-1.995701
1617.234000,-1.978231
1620.233000,-1.990415
1623.233000,-1.981570
1626.233000,-1.979703
1629.233000,-1.980387
1632.233000,-1.972843
1635.233000,-1.969723
1638.231000,-1.961853
1641.231000,-1.948904
1644.232000,-1.943907
1647.232000,-1.937611
1650.232000,-1.927943
1653.230000,-1.917609
1656.231000,-1.907754
1659.229000,-1.902869
1662.229000,-1.892371
1665.230000,-1.878692
1668.230000,-1.865794
1671.230000,-1.855117
1674.230000,-1.843405
1677.228000,-1.833652
1680.228000,-1.813395
1683.228000,-1.801674
1686.229000,-1.789357
1689.229000,-1.775885
1692.227000,-1.761050
1695.227000,-1.743839
1698.227000,-1.728449
1701.227000,-1.715351
1704.227000,-1.697388
1707.225000,-1.682873
1710.226000,-1.663955
1713.226000,-1.649541
1716.226000,-1.628855
1719.226000,-1.614159
1722.226000,-1.590329
1725.224000,-1.573250
1728.224000,-1.551188
1731.225000,-1.530420
1734.225000,-1.510411
1737.225000,-1.488287
1740.223000,-1.463947
1743.223000,-1.446029
1746.223000,-1.420580
1749.223000,-1.399602
1752.224000,-1.376302
1755.224000,-1.355369
1758.222000,-1.329968
1761.222000,-1.304581
1764.222000,-1.284378
1767.222000,-1.259633
1770.222000,-1.241255
1773.220000,-1.213948
1776.221000,-1.193207
1779.221000,-1.168521
1782.221000,-1.149912
1785.221000,-1.126799
1788.219000,-1.106310
1791.219000,-1.083966
1794.219000,-1.063419
1797.220000,-1.040663
1800.220000,-1.024278
1803.218000,-1.016816
1806.218000,-0.982318
1809.218000,-0.967422
1812.218000,-0.949497
1815.218000,-0.927631
1818.219000,-0.909145
1821.217000,-0.888068
1824.217000,-0.875997
1827.217000,-0.856416
1830.217000,-0.841149
1833.217000,-0.825104
1836.215000,-0.805730
1839.215000,-0.791782
1842.216000,-0.773952
1845.216000,-0.760976
1848.216000,-0.763352
1851.214000,-0.733865
1854.214000,-0.717511
1857.214000,-0.704477
1860.214000,-0.692528
1863.215000,-0.691301
1866.215000,-0.668487
1869.213000,-0.662766
1872.213000,-0.645683
1875.213000,-0.656752
1878.213000,-0.626194
1881.213000,-0.613232
1884.212000,-0.601807
1887.212000,-0.596847
1890.212000,-0.594657
1893.212000,-0.578289
1896.212000,-0.594542
1899.210000,-0.571884
1902.210000,-0.562475
1905.210000,-0.548279
1908.211000,-0.565239
1911.211000,-0.554680
1914.209000,-0.549502
1917.209000,-0.545362
1920.209000,-0.546766
1923.209000,-0.545668
1926.209000,-0.525992
1929.210000,-0.548853
1932.208000,-0.530421
1935.208000,-0.537652
1938.208000,-0.541218
1941.208000,-0.525118
1944.208000,-0.546603
1947.206000,-0.537275
1950.207000,-0.538978
1953.207000,-0.552919
1956.207000,-0.552287
1959.207000,-0.558667
1962.207000,-0.554622
1965.205000,-0.567679
1968.205000,-0.567489
1971.205000,-0.575209
1974.206000,-0.584955
1977.206000,-0.593886
1980.204000,-0.590010
1983.204000,-0.606447
1986.204000,-0.611634
1989.204000,-0.621194
1992.204000,-0.630552
1995.203000,-0.638398
1998.203000,-0.645673
2001.203000,-0.652397
2004.203000,-0.664550
2007.203000,-0.673406
2010.201000,-0.680664
2013.201000,-0.695326
2016.202000,-0.702590
2019.202000,-0.716766
2022.202000,-0.724225
2025.202000,-0.738587
2028.200000,-0.751594
2031.200000,-0.762377
2034.200000,-0.776216
2037.200000,-0.782981
2040.201000,-0.795447
2043.199000,-0.810122
2046.199000,-0.827582
2049.199000,-0.837957
2052.199000,-0.853503
2055.199000,-0.867842
2058.197000,-0.879366
2061.198000,-0.893960
2064.198000,-0.909461
2067.198000,-0.923433
2070.198000,-0.938588
2073.198000,-0.951744
2076.196000,-0.958012
2079.196000,-0.976400
2082.197000,-0.993363
2085.197000,-1.005999
2088.197000,-1.023143
2091.195000,-1.035200
2094.195000,-1.051385
2097.195000,-1.068549
2100.195000,-1.085251
2103.195000,-1.101527
2106.194000,-1.116692
2109.194000,-1.131691
2112.194000,-1.147933
2115.194000,-1.163472
2118.194000,-1.178495
2121.194000,-1.195437
2124.192000,-1.208828
2127.193000,-1.225298
2130.193000,-1.239341
2133.193000,-1.255588
2136.193000,-1.269994
2139.191000,-1.284738
2142.191000,-1.297177
2145.191000,-1.312117
2148.192000,-1.328390
2151.192000,-1.343623
2154.190000,-1.358663
2157.190000,-1.373290
2160.190000,-1.384352
2163.190000,-1.399765
2166.190000,-1.411749
2169.190000,-1.424157
2172.189000,-1.438424
2175.189000,-1.451359
2178.189000,-1.460405
2181.189000,-1.474278
2184.189000,-1.487104
2187.187000,-1.495569
2190.187000,-1.509809
2193.188000,-1.518274
2196.188000,-1.528785
2199.188000,-1.536322
2202.186000,-1.545796
2205.186000,-1.557195
2208.187000,-1.564656
2211.185000,-1.575745
2214.186000,-1.579162
2217.186000,-1.586807
2220.186000,-1.594691
2223.186000,-1.601564
2226.185000,-1.608418
2229.185000,-1.612347
2232.185000,-1.609716
2235.183000,-1.621930
2238.184000,-1.621706
2241.184000,-1.629270
2244.184000,-1.638516
2247.184000,-1.640250
2250.182000,-1.640604
2253.182000,-1.645013
2256.182000,-1.637840
2259.183000,-1.649286
2262.183000,-1.648093
2265.181000,-1.651523
2268.181000,-1.633142
2271.181000,-1.649663
2274.181000,-1.648786
2277.181000,-1.642263
2280.182000,-1.628610
2283.180000,-1.627985
2286.180000,-1.626098
2289.180000,-1.643973
2292.180000,-1.626771
2295.180000,-1.632010
2298.178000,-1.627941
2301.179000,-1.608724
2304.179000,-1.605018
2307.179000,-1.607765
2310.179000,-1.598454
2313.179000,-1.589931
2316.177000,-1.589840
2319.177000,-1.577639
2322.177000,-1.572363
2325.178000,-1.562600
2328.178000,-1.555383
2331.176000,-1.550345
2334.176000,-1.547254
2337.176000,-1.530618
2340.176000,-1.521398
2343.176000,-1.524638
2346.175000,-1.506410
2349.175000,-1.517795
2352.175000,-1.486747
2355.175000,-1.476658
2358.175000,-1.468016
2361.173000,-1.454963
2364.173000,-1.447508
2367.173000,-1.437928
2370.174000,-1.432597
2373.174000,-1.414050
2376.174000,-1.414478
2379.172000,-1.397063
2382.172000,-1.385274
2385.172000,-1.373413
2388.172000,-1.368514
2391.173000,-1.352207
2394.171000,-1.338055
2397.171000,-1.329366
2400.171000,-1.316030
2403.171000,-1.299332
2406.171000,-1.289208
2409.169000,-1.285931
2412.170000,-1.269066
2415.170000,-1.255567
2418.170000,-1.247959
2421.170000,-1.238359
2424.170000,-1.230102
2427.168000,-1.229004
2430.168000,-1.201896
2433.168000,-1.198691
2436.169000,-1.181425
2439.169000,-1.168643
2442.167000,-1.162432
2445.167000,-1.154406
2448.167000,-1.139071
2451.167000,-1.129824
2454.167000,-1.123053
2457.166000,-1.118402
2460.166000,-1.109020
2463.166000,-1.090387
2466.166000,-1.085499
2469.166000,-1.069525
2472.164000,-1.073023
2475.164000,-1.053965
2478.165000,-1.048927
2481.165000,-1.034711
2484.165000,-1.028221
2487.165000,-1.023466
2490.163000,-1.015286
2493.163000,-1.002494
2496.163000,-0.995196
2499.163000,-0.985772
2502.163000,-0.984559
2505.163000,-0.982505
2508.163000,-0.963326
2511.163000,-0.978106
2514.162000,-0.951030
2517.162000,-0.951757
2520.162000,-0.943928
2523.161000,-0.942487
2526.161000,-0.922957
2529.161000,-0.922301
2532.161000,-0.926180
2535.161000,-0.923399
2538.159000,-0.919204
2541.159000,-0.904376
2544.160000,-0.901540
2547.160000,-0.896234
2550.160000,-0.915808
2553.158000,-0.886379
2556.158000,-0.901309
2559.158000,-0.888541
2562.158000,-0.886508
2565.158000,-0.894024
2568.157000,-0.876769
2571.157000,-0.890907
2574.157000,-0.872305
2577.157000,-0.873661
2580.157000,-0.868474
2583.157000,-0.886488
2586.155000,-0.879546
2589.156000,-0.870507
2592.156000,-0.894306
2595.156000,-0.894952
2598.156000,-0.894432
2601.154000,-0.893378
2604.154000,-0.877574
2607.154000,-0.873702
2610.155000,-0.885022
2613.155000,-0.897787
2616.153000,-0.885634
2619.153000,-0.912646
2622.153000,-0.914581
2625.153000,-0.889041
2628.153000,-0.911514
2631.153000,-0.924585
2634.152000,-0.923970
2637.152000,-0.914564
2640.152000,-0.930861
2643.152000,-0.938690
2646.152000,-0.945081
2649.150000,-0.945937
2652.150000,-0.949279
2655.151000,-0.955330
2658.151000,-0.959518
2661.151000,-0.962445
2664.151000,-0.974680
2667.149000,-0.976611
2670.149000,-0.982597
2673.149000,-0.989835
2676.150000,-0.993843
2679.150000,-0.986326
2682.148000,-1.003113
2685.148000,-1.009276
2688.148000,-1.017387
2691.148000,-1.023122
2694.148000,-1.011414
2697.146000,-1.034840
2700.147000,-1.043332
2703.147000,-1.049366
2706.147000,-1.052500
2709.147000,-1.063124
2712.145000,-1.072061
2715.145000,-1.079339
2718.145000,-1.086424
2721.146000,-1.094531
2724.146000,-1.101150
2727.146000,-1.108377
2730.145000,-1.113300
2733.145000,-1.099090
2736.143000,-1.128692
2739.143000,-1.137487
2742.144000,-1.141100
2745.144000,-1.153220
2748.144000,-1.161113
2751.144000,-1.167878
2754.142000,-1.169904
2757.142000,-1.183485
2760.142000,-1.189862
2763.143000,-1.195601
2766.143000,-1.207050
2769.141000,-1.211758
2772.141000,-1.217310
2775.141000,-1.229259
2778.141000,-1.228667
2781.141000,-1.234623
2784.139000,-1.249326
2787.140000,-1.256261
2790.140000,-1.258555
2793.140000,-1.260728
2796.140000,-1.275474
2799.140000,-1.281835
2802.138000,-1.291465
2805.138000,-1.295218
2808.139000,-1.299169
2811.139000,-1.309911
2814.139000,-1.313508
2817.137000,-1.316825
2820.137000,-1.326463
2823.137000,-1.332653
2826.137000,-1.335791
2829.138000,-1.342284
2832.136000,-1.334482
2835.136000,-1.350752
2838.136000,-1.355613
2841.136000,-1.359230
2844.136000,-1.357044
2847.134000,-1.369758
2850.134000,-1.374103
2853.135000,-1.378114
2856.135000,-1.375775
2859.135000,-1.375361
2862.135000,-1.386059
2865.134000,-1.385236
2868.134000,-1.389530
2871.134000,-1.395387
2874.133000,-1.396985
2877.133000,-1.401866
2880.133000,-1.403043
2883.133000,-1.404137
2886.133000,-1.406282
2889.131000,-1.399188
2892.131000,-1.397879
2895.132000,-1.410195
2898.132000,-1.410807
2901.132000,-1.404239
2904.130000,-1.403916
2907.130000,-1.396740
2910.130000,-1.394214
2913.130000,-1.388224
2916.130000,-1.408291
2919.131000,-1.406619
2922.129000,-1.386518
2925.129000,-1.386324
2928.129000,-1.401934
2931.129000,-1.398606
2934.129000,-1.379845
2937.127000,-1.403179
2940.128000,-1.387004
2943.128000,-1.373005
2946.128000,-1.394717
2949.128000,-1.377628
2952.126000,-1.368212
2955.126000,-1.382449
2958.126000,-1.366447
2961.127000,-1.376472
2964.127000,-1.364897
2967.125000,-1.371040
2970.126000,-1.350086
2973.126000,-1.351493
2976.124000,-1.336287
2979.124000,-1.356562
2982.124000,-1.350925
2985.125000,-1.339925
2988.125000,-1.351544
2991.123000,-1.325416
2994.123000,-1.318603
2997.123000,-1.319372
3000.123000,-1.308922
3003.123000,-1.303890
3006.124000,-1.306426
3009.122000,-1.291394
3012.122000,-1.306783
3015.122000,-1.293631
3018.122000,-1.297119
3021.122000,-1.292128
3024.120000,-1.276117
3027.121000,-1.269641
3030.121000,-1.272150
3033.121000,-1.252783
3036.121000,-1.255513
3039.121000,-1.259415
3042.119000,-1.253660
3045.119000,-1.236561
3048.118000,-1.238073
3051.120000,-1.223041
3054.120000,-1.234728
3057.118000,-1.235952
3060.118000,-1.209382
3063.118000,-1.207451
3066.118000,-1.203987
3069.118000,-1.194792
3072.117000,-1.189250
3075.117000,-1.188509
3078.117000,-1.178406
3081.117000,-1.172634
3084.117000,-1.164254
3087.115000,-1.161242
3090.115000,-1.171985
3093.116000,-1.148018
3096.116000,-1.140400
3099.116000,-1.136481
3102.116000,-1.152159
3105.114000,-1.123505
3108.114000,-1.125718
3111.114000,-1.117389
3114.114000,-1.113697
3117.115000,-1.114088
3120.113000,-1.107575
3123.113000,-1.096765
3126.113000,-1.091771
3129.113000,-1.091152
3132.113000,-1.080186
3135.111000,-1.074675
3138.112000,-1.091040
3141.112000,-1.067859
3144.112000,-1.060509
3147.112000,-1.078822
3150.112000,-1.059575
3153.110000,-1.057793
3156.110000,-1.064021
3159.111000,-1.044940
3162.111000,-1.041928
3165.111000,-1.044053
3168.109000,-1.053728
3171.109000,-1.029829
3174.109000,-1.046014
3177.109000,-1.027484
3180.109000,-1.043560
3183.108000,-1.026379
3186.108000,-1.010864
3189.108000,-1.034534
3192.108000,-1.017618
3195.108000,-1.015606
3198.108000,-1.010643
3201.106000,-1.015620
3204.107000,-1.011836
3207.107000,-1.022028
3210.107000,-1.017438
3213.107000,-1.002032
3216.105000,-1.021569
3219.105000,-1.021630
3222.105000,-1.008396
3225.106000,-1.002219
3228.106000,-1.025107
3231.104000,-1.014878
3234.104000,-0.999975
3237.104000,-1.016840
3240.104000,-0.997313
3243.104000,-0.996906
3246.104000,-1.008083
3249.103000,-1.024047
3252.103000,-1.011387
3255.103000,-1.015902
3258.103000,-1.027297
3261.103000,-1.026981
3264.101000,-1.032991
3267.101000,-1.026661
3270.102000,-1.035908
3273.102000,-1.036638
3276.102000,-1.041370
3279.100000,-1.044318
3282.100000,-1.046918
3285.100000,-1.047150
3288.100000,-1.048404
3291.101000,-1.050852
3294.099000,-1.057192
3297.099000,-1.059184
3300.099000,-1.066163
3303.099000,-1.073580
3306.099000,-1.070025
3309.099000,-1.079414
3312.097000,-1.078360
3315.098000,-1.087811
3318.098000,-1.090646
3321.098000,-1.094830
3324.098000,-1.099358
3327.096000,-1.095592
3330.096000,-1.105236
3333.096000,-1.115649
3336.097000,-1.118565
3339.097000,-1.113300
3342.095000,-1.126847
3345.095000,-1.130457
3348.095000,-1.135627
3351.095000,-1.139003
3354.095000,-1.144704
3357.096000,-1.149698
3360.094000,-1.158910
3363.094000,-1.164424
3366.094000,-1.166471
3369.094000,-1.166732
3372.094000,-1.179480
3375.092000,-1.185355
3378.092000,-1.186915
3381.093000,-1.193469
3384.093000,-1.199248
3387.093000,-1.204072
3390.093000,-1.207727
3393.091000,-1.214281
3396.091000,-1.220090
3399.091000,-1.227260
3402.092000,-1.231567
3405.092000,-1.232301
3408.090000,-1.232927
3411.090000,-1.242333
3414.090000,-1.251008
3417.090000,-1.256074
3420.090000,-1.261666
3423.089000,-1.245270
3426.089000,-1.260734
3429.089000,-1.272802
3432.089000,-1.277239
3435.089000,-1.280203
3438.087000,-1.273639
3441.087000,-1.288678
3444.087000,-1.292040
3447.088000,-1.294739
3450.088000,-1.302225
3453.088000,-1.307270
3456.086000,-1.311583
3459.086000,-1.310873
3462.086000,-1.313273
3465.086000,-1.315806
3468.087000,-1.323665
3471.085000,-1.322084
3474.085000,-1.320912
3477.085000,-1.334346
3480.085000,-1.335886
3483.085000,-1.338130
3486.083000,-1.336709
3489.084000,-1.341356
3492.084000,-1.337885
3495.084000,-1.351993
3498.084000,-1.354655
3501.082000,-1.362127
3504.082000,-1.362820
3507.082000,-1.361433
3510.082000,-1.362545
3513.083000,-1.364941
3516.083000,-1.355923
3519.081000,-1.366158
3522.081000,-1.353839
3525.081000,-1.351517
3528.080000,-1.372791
3531.080000,-1.373420
3534.081000,-1.374096
3537.081000,-1.365863
3540.081000,-1.364737
3543.079000,-1.377938
3546.080000,-1.367297
3549.080000,-1.360576
3552.078000,-1.369136
3555.079000,-1.383581
3558.079000,-1.379182
3561.079000,-1.365924
3564.079000,-1.363031
3567.077000,-1.370214
3570.077000,-1.373372
3573.077000,-1.373389
3576.076000,-1.380290
3579.077000,-1.381014
3582.077000,-1.367114
3585.077000,-1.357901
3588.077000,-1.361933
3591.075000,-1.362599
3594.075000,-1.376377
3597.075000,-1.358360
3600.076000,-1.374035
3603.075000,-1.356735
3606.074000,-1.374555
3609.074000,-1.367868
3612.074000,-1.356242
3615.074000,-1.368579
3618.074000,-1.342709
3621.075000,-1.363004
3624.073000,-1.366814
3627.073000,-1.340156
3630.073000,-1.349025
3633.073000,-1.355348
3636.073000,-1.339714
3639.071000,-1.361389
3642.071000,-1.332966
3645.071000,-1.348848
3648.071000,-1.344449
3651.071000,-1.330002
3654.071000,-1.348090
3657.071000,-1.327592
3660.071000,-1.321544
3663.069000,-1.323196
3666.070000,-1.311454
3669.070000,-1.315194
3672.070000,-1.306896
3675.070000,-1.316720
3678.068000,-1.302792
3681.068000,-1.316315
3684.068000,-1.310458
3687.069000,-1.293556
3690.069000,-1.312148
3693.067000,-1.302109
3696.067000,-1.293899
3699.067000,-1.309704
3702.067000,-1.285319
3705.067000,-1.290932
3708.067000,-1.278918
3711.066000,-1.271330
3714.066000,-1.291387
3717.066000,-1.268251
3720.066000,-1.270192
3723.066000,-1.260666
3726.064000,-1.258926
3729.064000,-1.251620
3732.065000,-1.273401
3735.065000,-1.251821
3738.065000,-1.262675
3741.063000,-1.263896
3744.063000,-1.242928
3747.063000,-1.245848
3750.063000,-1.241082
3753.064000,-1.225074
3756.064000,-1.236010
3759.062000,-1.247143
3762.062000,-1.228116
3765.062000,-1.243638
3768.062000,-1.218112
3771.062000,-1.218159
3774.060000,-1.236408
3777.061000,-1.209365
3780.061000,-1.227804
3783.061000,-1.209212
3786.061000,-1.228089
3789.059000,-1.200159
3792.059000,-1.199490
3795.059000,-1.220036
3798.060000,-1.200914
3801.060000,-1.202556
3804.060000,-1.213325
3807.058000,-1.198245
3810.058000,-1.195570
3813.058000,-1.190780
3816.058000,-1.191368
3819.059000,-1.199255
3822.057000,-1.179712
3825.057000,-1.176917
3828.057000,-1.189788
3831.057000,-1.192004
3834.057000,-1.176441
3837.057000,-1.193530
3840.055000,-1.186823
3843.056000,-1.164829
3846.056000,-1.187534
3849.056000,-1.171468
3852.056000,-1.159461
3855.054000,-1.173980
3858.054000,-1.162932
3861.054000,-1.182829
3864.055000,-1.177927
3867.055000,-1.157836
3870.053000,-1.156218
3873.053000,-1.176747
3876.053000,-1.175758
3879.053000,-1.166076
3882.053000,-1.156174
3885.052000,-1.173402
3888.052000,-1.167086
3891.052000,-1.156650
3894.052000,-1.167949
3897.052000,-1.179307
3900.052000,-1.172705
3903.050000,-1.169248
3906.050000,-1.174283
3909.051000,-1.173375
3912.051000,-1.161266
3915.051000,-1.165087
3918.049000,-1.181374
3921.049000,-1.188445
3924.049000,-1.178648
3927.049000,-1.176146
3930.050000,-1.186368
3933.048000,-1.189709
3936.048000,-1.191395
3939.048000,-1.184253
3942.048000,-1.168640
3945.048000,-1.194356
3948.048000,-1.175969
3951.047000,-1.173926
3954.047000,-1.197304
3957.047000,-1.201461
3960.047000,-1.196746
3963.047000,-1.200642
3966.045000,-1.210130
3969.045000,-1.209600
3972.045000,-1.205517
3975.046000,-1.213999
3978.046000,-1.220145
3981.044000,-1.220957
3984.044000,-1.229024
3987.044000,-1.221335
3990.044000,-1.225897
3993.044000,-1.221987
3996.043000,-1.223367
3999.043000,-1.236602
4002.043000,-1.236285
4005.043000,-1.250828
4008.043000,-1.251753
4011.043000,-1.255319
4014.041000,-1.261254
4017.042000,-1.262091
4020.042000,-1.245406
4023.042000,-1.265055
4026.041000,-1.272887
4029.041000,-1.277864
4032.041000,-1.283558
4035.041000,-1.286696
4038.039000,-1.285476
4041.040000,-1.293308
4044.040000,-1.298689
4047.040000,-1.299390
4050.040000,-1.309969
4053.038000,-1.300430
4056.038000,-1.298254
4059.038000,-1.322706
4062.039000,-1.326405
4065.039000,-1.327884
4068.039000,-1.340108
4071.037000,-1.342862
4074.037000,-1.346336
4077.037000,-1.347346
4080.036000,-1.355827
4083.037000,-1.360937
4086.037000,-1.367216
4089.037000,-1.373369
4092.035000,-1.373882
4095.035000,-1.378689
4098.035000,-1.383298
4101.035000,-1.384900
4104.035000,-1.388653
4107.036000,-1.395968
4110.034000,-1.404249
4113.034000,-1.399460
4116.034000,-1.398763
4119.034000,-1.413982
4122.034000,-1.414689
4125.032000,-1.419771
4128.033000,-1.424085
4131.033000,-1.418860
4134.033000,-1.433957
4137.033000,-1.435450
4140.031000,-1.436276
4143.031000,-1.441263
4146.031000,-1.444802
4149.031000,-1.444319
4152.031000,-1.447579
4155.031000,-1.453657
4158.031000,-1.454973
4161.031000,-1.454963
4164.029000,-1.452760
4167.029000,-1.434780
4170.029000,-1.453834
4173.030000,-1.457866
4176.030000,-1.463641
4179.030000,-1.455469
4182.028000,-1.455731
4185.028000,-1.464709
4188.028000,-1.466793
4191.028000,-1.460004
4194.029000,-1.449238
4197.027000,-1.445070
4200.027000,-1.445743
4203.027000,-1.463533
4206.027000,-1.452998
4209.027000,-1.463257
4212.025000,-1.450550
4215.026000,-1.462917
4218.026000,-1.453049
4221.026000,-1.463604
4224.026000,-1.452348
4227.026000,-1.450696
4230.024000,-1.464634
4233.024000,-1.457682
4236.024000,-1.440624
4239.025000,-1.450142
4242.025000,-1.447304
4245.023000,-1.448109
4248.023000,-1.448269
4251.023000,-1.444659
4254.023000,-1.430690
4257.023000,-1.438434
4260.022000,-1.414665
4263.022000,-1.413849
4266.022000,-1.430548
4269.022000,-1.417779
4272.022000,-1.426812
4275.022000,-1.421349
4278.020000,-1.406816
4281.021000,-1.424123
4284.021000,-1.399997
4287.021000,-1.403253
4290.021000,-1.414152
4293.019000,-1.394646
4296.019000,-1.373423
4299.019000,-1.394918
4302.019000,-1.388156
4305.020000,-1.369000
4308.018000,-1.382612
4311.018000,-1.357014
4314.018000,-1.366240
4317.018000,-1.358119
4320.018000,-1.352190
4323.016000,-1.346302
4326.017000,-1.335339
4329.017000,-1.334829
4332.017000,-1.340758
4335.017000,-1.342189
4338.017000,-1.319508
4341.015000,-1.315751
4344.015000,-1.317743
4347.016000,-1.305311
4350.016000,-1.310632
4353.016000,-1.292145
4356.014000,-1.305791
4359.014000,-1.288059
4362.014000,-1.291686
4365.014000,-1.280142
4368.015000,-1.284585
4371.013000,-1.271752
4374.013000,-1.255387
4377.013000,-1.270681
4380.013000,-1.260833
4383.013000,-1.247833
4386.013000,-1.264545
4389.011000,-1.247629
4392.012000,-1.236554
4395.012000,-1.226294
4398.012000,-1.246542
4401.012000,-1.220529
4404.010000,-1.230982
4407.010000,-1.236608
4410.010000,-1.214563
4413.011000,-1.220978
4416.011000,-1.203484
4419.009000,-1.205004
4422.009000,-1.223986
4425.009000,-1.198480
4428.009000,-1.214964
4431.009000,-1.198103
4434.010000,-1.198082
4437.008000,-1.199364
4440.008000,-1.182200
4443.008000,-1.185888
4446.008000,-1.182278
4449.008000,-1.169401
4452.006000,-1.176591
4455.006000,-1.183893
4458.007000,-1.159305
4461.007000,-1.166386
4464.007000,-1.168232
4467.005000,-1.160018
4470.005000,-1.174300
4473.005000,-1.153899
4476.005000,-1.146489
4479.006000,-1.160457
4482.006000,-1.145622
4485.004000,-1.153811
4488.004000,-1.148620
4491.004000,-1.141763
4494.004000,-1.148695
4497.004000,-1.135502
4500.003000,-1.155392
4503.003000,-1.159342
4506.003000,-1.159077
4509.003000,-1.144010
4512.003000,-1.142229
4515.001000,-1.159189
4518.001000,-1.141298
4521.001000,-1.140315
4524.002000,-1.153570
4527.002000,-1.143548
4530.002000,-1.136144
4533.000000,-1.157204
4536.000000,-1.133431
4539.000000,-1.146693
4542.000000,-1.154178
4545.001000,-1.135230
4547.999000,-1.155966
4550.999000,-1.159475
4553.999000,-1.166705
4556.999000,-1.158067
4559.999000,-1.157503
4562.997000,-1.164108
4565.997000,-1.161827
4568.998000,-1.144157
4571.998000,-1.162775
4574.998000,-1.162452
4577.996000,-1.153294
4580.996000,-1.159393
4583.996000,-1.176370
4586.996000,-1.169421
4589.997000,-1.171662
4592.997000,-1.186096
4595.995000,-1.162850
4598.995000,-1.162486
4601.995000,-1.188673
4604.995000,-1.189747
4607.995000,-1.197280
4610.994000,-1.199796
4613.994000,-1.202869
4616.994000,-1.205473
4619.994000,-1.199942
4622.994000,-1.210728
4625.994000,-1.215538
4628.992000,-1.220420
4631.993000,-1.220733
4634.993000,-1.228422
4637.993000,-1.230856
4640.993000,-1.229619
4643.991000,-1.211058
4646.991000,-1.237543
4649.991000,-1.247293
4652.991000,-1.250675
4655.992000,-1.251019
4658.990000,-1.256519
4661.990000,-1.260931
4664.990000,-1.254136
4667.990000,-1.264647
4670.990000,-1.271245
4673.988000,-1.277395
4676.989000,-1.281760
4679.989000,-1.284136
4682.989000,-1.290279
4685.988000,-1.291805
4688.988000,-1.294134
4691.988000,-1.299039
4694.988000,-1.302143
4697.987000,-1.307660
4700.987000,-1.308208
4703.987000,-1.290966
4706.987000,-1.313212
4709.987000,-1.319640
4712.987000,-1.330600
4715.985000,-1.332613
4718.985000,-1.335740
4721.985000,-1.332823
4724.985000,-1.342791
4727.985000,-1.344694
4730.985000,-1.349861
4733.985000,-1.356518
4736.985000,-1.359659
4739.983000,-1.365118
4742.984000,-1.371445
4745.984000,-1.373294
4748.984000,-1.373654
4751.984000,-1.374810
4754.982000,-1.383387
4757.982000,-1.383961
4760.982000,-1.389747
4763.983000,-1.390672
4766.983000,-1.396896
4769.983000,-1.403430
4772.981000,-1.404436
4775.981000,-1.405749
4778.981000,-1.409311
4781.981000,-1.406476
4784.981000,-1.414213
4787.980000,-1.414217
4790.980000,-1.417354
4793.980000,-1.415308
4796.980000,-1.424898
4799.980000,-1.423796
4802.978000,-1.428647
4805.978000,-1.429436
4808.979000,-1.431129
4811.979000,-1.434481
4814.979000,-1.434362
4817.977000,-1.431129
4820.977000,-1.411269
4823.977000,-1.432618
4826.977000,-1.419142
4829.978000,-1.438084
4832.978000,-1.436786
4835.976000,-1.434743
4838.976000,-1.431513
4841.976000,-1.430473
4844.976000,-1.433281
4847.976000,-1.424327
4850.974000,-1.424371
4853.975000,-1.415794
4856.975000,-1.432897
4859.975000,-1.429225
4862.975000,-1.408856
4865.975000,-1.430299
4868.973000,-1.419350
4871.973000,-1.415702
4874.974000,-1.430714
4877.974000,-1.408427
4880.974000,-1.424582
4883.972000,-1.406704
4886.972000,-1.417334
4889.972000,-1.410120
4892.972000,-1.410385
4895.973000,-1.409328
4898.971000,-1.399055
4901.971000,-1.411341
4904.971000,-1.410657
4907.971000,-1.384386
4910.971000,-1.404147
4913.969000,-1.381667
4916.969000,-1.391675
4919.970000,-1.388768
4922.970000,-1.373158
4925.970000,-1.392399
4928.968000,-1.372821
4931.968000,-1.372298
4934.968000,-1.377370
4937.968000,-1.354971
4940.969000,-1.374817
4943.969000,-1.359346
4946.967000,-1.353635
4949.967000,-1.371315
4952.967000,-1.343821
4955.967000,-1.345639
4958.967000,-1.353057
4961.966000,-1.351378
4964.966000,-1.326415
4967.966000,-1.337025
4970.966000,-1.322282
4973.966000,-1.322268
4976.966000,-1.311458
4979.964000,-1.320055
4982.965000,-1.306205
4985.964000,-1.305985
4988.964000,-1.296007
4991.964000,-1.295871
4994.964000,-1.292805
4997.964000,-1.289001
5000.964000,-1.295803
5003.962000,-1.302605
5006.963000,-1.275617
5009.963000,-1.298210
5012.963000,-1.278361
5015.963000,-1.271426
5018.961000,-1.282124
5021.961000,-1.256883
5024.961000,-1.256635
5027.962000,-1.254289
5030.962000,-1.271198
5033.960000,-1.265113
5036.960000,-1.257172
5039.960000,-1.265997
5042.960000,-1.240861
5045.960000,-1.235293
5048.958000,-1.254595
5051.959000,-1.229248
5054.959000,-1.224336
5057.959000,-1.249384
5060.959000,-1.230313
5063.959000,-1.244169
5066.957000,-1.241884
5069.957000,-1.220101
5072.958000,-1.231067
5075.958000,-1.208699
5078.958000,-1.222575
5081.956000,-1.215464
5084.956000,-1.222586
5087.956000,-1.226692
5090.956000,-1.205388
5093.957000,-1.225642
5096.957000,-1.206411
5099.955000,-1.195726
5102.955000,-1.199296
5105.955000,-1.218666
5108.955000,-1.204028
5111.955000,-1.198840
5114.953000,-1.212809
5117.954000,-1.190763
5120.954000,-1.207373
5123.954000,-1.188771
5126.954000,-1.182312
5129.952000,-1.201098
5132.952000,-1.197586
5135.952000,-1.199813
5138.952000,-1.202376
5141.952000,-1.181061
5144.952000,-1.203440
5147.952000,-1.195801
5150.952000,-1.197579
5153.950000,-1.208709
5156.950000,-1.201213
5159.951000,-1.200017
5162.951000,-1.199898
5165.951000,-1.201295
5168.949000,-1.210405
5171.949000,-1.198786
5174.949000,-1.189420
5177.949000,-1.211367
5180.949000,-1.200523
5183.950000,-1.201043
5186.948000,-1.215474
5189.948000,-1.211174
5192.948000,-1.215987
5195.948000,-1.222378
5198.948000,-1.226709
5201.946000,-1.222031
5204.947000,-1.226689
5207.947000,-1.206489
5210.947000,-1.220053
5213.947000,-1.215328
5216.945000,-1.223340
5219.945000,-1.230496
5222.945000,-1.236231
5225.946000,-1.215722
5228.946000,-1.238532
5231.946000,-1.243910
5234.944000,-1.249686
5237.944000,-1.229279
5240.944000,-1.248452
5243.944000,-1.254360
5246.944000,-1.251501
5249.944000,-1.261533
5252.944000,-1.257134
5255.942000,-1.251039
5258.942000,-1.266714
5261.942000,-1.271619
5264.941000,-1.272921
5267.941000,-1.280342
5270.942000,-1.276555
5273.942000,-1.283477
5276.942000,-1.272133
5279.942000,-1.284245
5282.940000,-1.292298
5285.940000,-1.291710
5288.940000,-1.294984
5291.941000,-1.295864
5294.941000,-1.297782
5297.939000,-1.305566
5300.939000,-1.309816
5303.939000,-1.314793
5306.939000,-1.322003
5309.939000,-1.322846
5312.937000,-1.328802
5315.938000,-1.321707
5318.938000,-1.330505
5321.938000,-1.340676
5324.938000,-1.329346
5327.938000,-1.337096
5330.936000,-1.340683
5333.936000,-1.352816
5336.937000,-1.359319
5339.937000,-1.363286
5342.937000,-1.357500
5345.935000,-1.368681
5348.935000,-1.373277
5351.935000,-1.373454
5354.935000,-1.376554
5357.936000,-1.382625
5360.934000,-1.370217
5363.934000,-1.362783
5366.934000,-1.386144
5369.934000,-1.388520
5372.934000,-1.396550
5375.932000,-1.400010
5378.932000,-1.402390
5381.933000,-1.404671
5384.933000,-1.402441
5387.933000,-1.410834
5390.933000,-1.408910
5393.931000,-1.414196
5396.931000,-1.416134
5399.931000,-1.422810
5402.932000,-1.422005
5405.932000,-1.423898
5408.930000,-1.425544
5411.930000,-1.431877
5414.930000,-1.429069
5417.930000,-1.431527
5420.930000,-1.434532
5423.929000,-1.432458
5426.929000,-1.416436
5429.929000,-1.422657
5432.929000,-1.443595
5435.929000,-1.435888
5438.929000,-1.434246
5441.927000,-1.441331
5444.927000,-1.421882
5447.928000,-1.444710
5450.928000,-1.438852
5453.928000,-1.433090
5456.926000,-1.429858
5459.926000,-1.429116
5462.926000,-1.423864
5465.926000,-1.429297
5468.927000,-1.439998
5471.925000,-1.414849
5474.925000,-1.439838
5477.925000,-1.433458
5480.925000,-1.416273
5483.925000,-1.439053
5486.925000,-1.426822
5489.924000,-1.415950
5492.924000,-1.438054
5495.924000,-1.422226
5498.924000,-1.412680
5501.923000,-1.429874
5504.923000,-1.412860
5507.923000,-1.428437
5510.923000,-1.409576
5513.922000,-1.417191
5516.922000,-1.427784
5519.921000,-1.410559
5522.921000,-1.408716
5525.921000,-1.420529
5528.921000,-1.406221
5531.921000,-1.401105
5534.922000,-1.411817
5537.920000,-1.387014
5540.920000,-1.408336
5543.920000,-1.387721
5546.920000,-1.395428
5549.920000,-1.381252
5552.918000,-1.396580
5555.919000,-1.377111
5558.919000,-1.379661
5561.919000,-1.389832
5564.919000,-1.381327
5567.917000,-1.360937
5570.917000,-1.366298
5573.917000,-1.357184
5576.917000,-1.374127
5579.918000,-1.361607
5582.916000,-1.347325
5585.916000,-1.341801
5588.917000,-1.343695
5591.915000,-1.335682
5594.915000,-1.356891
5597.915000,-1.334435
5600.916000,-1.328193
5603.916000,-1.351568
5606.914000,-1.331474
5609.914000,-1.327156
5612.914000,-1.332456
5615.914000,-1.313518
5618.914000,-1.322278
5621.915000,-1.304999
5624.913000,-1.304468
5627.913000,-1.314674
5630.913000,-1.291754
5633.913000,-1.297530
5636.913000,-1.294770
5639.911000,-1.289756
5642.911000,-1.304227
5645.912000,-1.281689
5648.912000,-1.271504
5651.912000,-1.281842
5654.912000,-1.267316
5657.910000,-1.259048
5660.910000,-1.261234
5663.910000,-1.260065
5666.911000,-1.275253
5669.911000,-1.246691
5672.909000,-1.264565
5675.909000,-1.251059
5678.909000,-1.230775
5681.909000,-1.229701
5684.909000,-1.235741
5687.908000,-1.242574
5690.908000,-1.220454
5693.908000,-1.242007
5696.907000,-1.216116
5699.907000,-1.232903
5702.907000,-1.207614
5705.907000,-1.209314
5708.907000,-1.214641
5711.906000,-1.222344
5714.906000,-1.202610
5717.906000,-1.203617
5720.906000,-1.190148
5723.906000,-1.188261
5726.904000,-1.207128
5729.904000,-1.189437
5732.905000,-1.207577
5735.905000,-1.195342
5738.905000,-1.188227
5741.905000,-1.198123
5744.903000,-1.183040
5747.903000,-1.200418
5750.903000,-1.198378
5753.904000,-1.174704
5756.904000,-1.195784
5759.902000,-1.196573
5762.902000,-1.186082
5765.902000,-1.169676
5768.902000,-1.191936
5771.902000,-1.194013
5774.900000,-1.187262
5777.901000,-1.189199
5780.901000,-1.188516
5783.901000,-1.189284
5786.901000,-1.192398
5789.901000,-1.199575
5792.899000,-1.195699
5795.899000,-1.198381
5798.900000,-1.200880
5801.900000,-1.200251
5804.900000,-1.201162
5807.898000,-1.184396
5810.898000,-1.209229
5813.898000,-1.202712
5816.898000,-1.210249
5819.899000,-1.201227
5822.897000,-1.211979
5825.897000,-1.212360
5828.897000,-1.211197
5831.897000,-1.224632
5834.897000,-1.213713
5837.897000,-1.214563
5840.895000,-1.227773
5843.896000,-1.230139
5846.896000,-1.233651
5849.896000,-1.232349
5852.896000,-1.218805
5855.894000,-1.247660
5858.894000,-1.250998
5861.894000,-1.251053
5864.895000,-1.258130
5867.895000,-1.258606
5870.893000,-1.259895
5873.893000,-1.263603
5876.893000,-1.275859
5879.893000,-1.277575
5882.893000,-1.281529
5885.894000,-1.284099
5888.892000,-1.291605
5891.892000,-1.291901
5894.892000,-1.295858
5897.892000,-1.301518
5900.892000,-1.303534
5903.890000,-1.311155
5906.890000,-1.313181
5909.891000,-1.319429
5912.891000,-1.322387
5915.891000,-1.325800
5918.889000,-1.324668
5921.889000,-1.332048
5924.889000,-1.334907
5927.889000,-1.342162
5930.890000,-1.342213
5933.888000,-1.338565
5936.888000,-1.357432
5939.888000,-1.363446
5942.888000,-1.370272
5945.888000,-1.373311
5948.888000,-1.373753
5951.887000,-1.377390
5954.887000,-1.378930
5957.887000,-1.386059
5960.887000,-1.389183
5963.887000,-1.396839
5966.885000,-1.404164
5969.885000,-1.405337
5972.885000,-1.408366
5975.886000,-1.413404
5978.886000,-1.417099
5981.886000,-1.417881
5984.884000,-1.425625
5987.884000,-1.428029
5990.884000,-1.434603
5993.884000,-1.433526
5996.885000,-1.441803
5999.883000,-1.444676
6002.883000,-1.445651
6005.883000,-1.439169
6008.883000,-1.452902
6011.883000,-1.444492
6014.881000,-1.454609
6017.882000,-1.456468
6020.883000,-1.454980
6023.881000,-1.462210
6026.881000,-1.465933
6029.881000,-1.467007
6032.881000,-1.472313
6035.881000,-1.475325
6038.879000,-1.476308
6041.880000,-1.484436
6044.880000,-1.484538
6047.880000,-1.476739
6050.880000,-1.476029
6053.878000,-1.485367
6056.878000,-1.485208
6059.878000,-1.484711
6062.879000,-1.490314
6065.879000,-1.485921
6068.878000,-1.489307
6071.878000,-1.493081
6074.878000,-1.495719
6077.876000,-1.495749
6080.876000,-1.495335
6083.877000,-1.495562
6086.877000,-1.493805
6089.877000,-1.468418
6092.877000,-1.472660
6095.875000,-1.489953
6098.875000,-1.494094
6101.875000,-1.485751
6104.875000,-1.474333
6107.876000,-1.460847
6110.874000,-1.470162
6113.874000,-1.466018
6116.874000,-1.458794
6119.874000,-1.481254
6122.874000,-1.463509
6125.872000,-1.455914
6128.873000,-1.461320
6131.873000,-1.453011
6134.873000,-1.469740
6137.873000,-1.453052
6140.873000,-1.443064
6143.871000,-1.455969
6146.871000,-1.454272
6149.872000,-1.433485
6152.872000,-1.451743
6155.872000,-1.440100
6158.870000,-1.421855
6161.870000,-1.440270
6164.870000,-1.415991
6167.870000,-1.414169
6170.870000,-1.433305
6173.869000,-1.418626
6176.869000,-1.423106
6179.869000,-1.412224
6182.869000,-1.411351
6185.869000,-1.412775
6188.869000,-1.389129
6191.867000,-1.397569
6194.868000,-1.380164
6197.868000,-1.374664
6200.868000,-1.374569
6203.868000,-1.384468
6206.866000,-1.377234
6209.866000,-1.377499
6212.866000,-1.367396
6215.867000,-1.362079
6218.867000,-1.354478
6221.865000,-1.358666
6224.865000,-1.368310
6227.865000,-1.355855
6230.865000,-1.337827
6233.865000,-1.330539
6236.866000,-1.350861
6239.864000,-1.341750
6242.864000,-1.321415
6245.864000,-1.316237
6248.864000,-1.333639
6251.864000,-1.313841
6254.862000,-1.313637
6257.862000,-1.306651
6260.863000,-1.324348
6263.863000,-1.309173
6266.863000,-1.293859
6269.861000,-1.296038
6272.861000,-1.290313
6275.861000,-1.308004
6278.861000,-1.284170
6281.862000,-1.281702
6284.860000,-1.301902
6287.860000,-1.286302
6290.860000,-1.284643
6293.860000,-1.297894
6296.860000,-1.273880
6299.860000,-1.276804
6302.859000,-1.272462
6305.859000,-1.275906
6308.859000,-1.281124
6311.859000,-1.261078
6314.859000,-1.289895
6317.857000,-1.270892
6320.857000,-1.262543
6323.857000,-1.279183
6326.858000,-1.254605
6329.858000,-1.271225
6332.856000,-1.281736
6335.856000,-1.274189
6338.856000,-1.256505
6341.856000,-1.275699
6344.856000,-1.254357
6347.857000,-1.276610
6350.855000,-1.264331
6353.855000,-1.262444
6356.855000,-1.276103
6359.855000,-1.253626
6362.855000,-1.280152
6365.853000,-1.281464
6368.854000,-1.272180
6371.854000,-1.264912
6374.854000,-1.282385
6377.854000,-1.267693
6380.854000,-1.273193
6383.852000,-1.273989
6386.852000,-1.255958
6389.852000,-1.281515
6392.853000,-1.285302
6395.853000,-1.288861
6398.851000,-1.286006
6401.851000,-1.281757
6404.851000,-1.290752
6407.851000,-1.292084
6410.851000,-1.288284
6413.850000,-1.271313
6416.850000,-1.282736
6419.850000,-1.301949
6422.850000,-1.294892
6425.850000,-1.290180
6428.848000,-1.292234
6431.848000,-1.307307
6434.849000,-1.288685
6437.849000,-1.282413
6440.849000,-1.300209
6443.849000,-1.304013
6446.847000,-1.304689
6449.847000,-1.319848
6452.847000,-1.304003
6455.847000,-1.298815
6458.848000,-1.327415
6461.846000,-1.315925
6464.846000,-1.312433
6467.846000,-1.332997
6470.846000,-1.338351
6473.846000,-1.334132
6476.844000,-1.315806
6479.845000,-1.335189
6482.845000,-1.349273
6485.845000,-1.335512
6488.845000,-1.325287
6491.845000,-1.353835
6494.843000,-1.351146
6497.843000,-1.354379
6500.844000,-1.362718
6503.844000,-1.362885
6506.844000,-1.363126
6509.842000,-1.368592
6512.842000,-1.370768
6515.842000,-1.371417
6518.842000,-1.373403
6521.842000,-1.375238
6524.841000,-1.377407
6527.841000,-1.373416
6530.841000,-1.374586
6533.841000,-1.384668
6536.841000,-1.382214
6539.841000,-1.376047
6542.839000,-1.392688
6545.840000,-1.396281
6548.840000,-1.402505
6551.840000,-1.403974
6554.840000,-1.404555
6557.838000,-1.405412
6560.838000,-1.404824
6563.838000,-1.409655
6566.839000,-1.402522
6569.839000,-1.413567
6572.837000,-1.414196
6575.837000,-1.418255
6578.837000,-1.421046
6581.837000,-1.407928
6584.837000,-1.419815
6587.837000,-1.426417
6590.836000,-1.425833
6593.836000,-1.434304
6596.836000,-1.434821
6599.836000,-1.430269
6602.836000,-1.437163
6605.834000,-1.434719
6608.834000,-1.440998
6611.835000,-1.434396
6614.835000,-1.418031
6617.835000,-1.440736
6620.834000,-1.444961
6623.834000,-1.428029
6626.834000,-1.429011
6629.832000,-1.447796
6632.833000,-1.446821
6635.833000,-1.446511
6638.833000,-1.453287
6641.833000,-1.444812
6644.831000,-1.442531
6647.831000,-1.445383
6650.831000,-1.454915
6653.831000,-1.450978
6656.832000,-1.441929
6659.830000,-1.428783
6662.830000,-1.431119
6665.830000,-1.435779
6668.830000,-1.450302
6671.830000,-1.451862
6674.830000,-1.433410
6677.829000,-1.449126
6680.829000,-1.443462
6683.829000,-1.449880
6686.828000,-1.432944
6689.828000,-1.453909
6692.828000,-1.454922
6695.828000,-1.454830
6698.829000,-1.451237
6701.827000,-1.431975
6704.827000,-1.453627
6707.827000,-1.444944
6710.827000,-1.443112
6713.827000,-1.426876
6716.825000,-1.431197
6719.825000,-1.447409
6722.826000,-1.432570
6725.826000,-1.424983
6728.826000,-1.440035
6731.824000,-1.442140
6734.824000,-1.425965
6737.824000,-1.417252
6740.824000,-1.414808
6743.825000,-1.422317
6746.825000,-1.435480
6749.823000,-1.414380
6752.823000,-1.428212
6755.823000,-1.429759
6758.823000,-1.409209
6761.823000,-1.410770
6764.822000,-1.414757
6767.823000,-1.404202
6770.823000,-1.410858
6773.821000,-1.399167
6776.821000,-1.407815
6779.821000,-1.384295
6782.821000,-1.391614
6785.821000,-1.382925
6788.820000,-1.389815
6791.820000,-1.390798
6794.820000,-1.375490
6797.820000,-1.390026
6800.820000,-1.366148
6803.818000,-1.383781
6806.818000,-1.363979
6809.819000,-1.370622
6812.819000,-1.374844
6815.819000,-1.354026
6818.819000,-1.372107
6821.817000,-1.350983
6824.817000,-1.366240
6827.817000,-1.350647
6830.818000,-1.340462
6833.818000,-1.340819
6836.816000,-1.339024
6839.816000,-1.346278
6842.816000,-1.331820
6845.815000,-1.349362
6848.815000,-1.327884
6851.815000,-1.318930
6854.816000,-1.332949
6857.816000,-1.337827
6860.814000,-1.312658
6863.814000,-1.318597
6866.814000,-1.318369
6869.814000,-1.304050
6872.814000,-1.315007
6875.813000,-1.309547
6878.814000,-1.297795
6881.814000,-1.297347
6884.812000,-1.294637
6887.812000,-1.303248
6890.812000,-1.293005
6893.812000,-1.290898
6896.813000,-1.308201
6899.811000,-1.282657
6902.811000,-1.281641
6905.811000,-1.294817
6908.811000,-1.306875
6911.811000,-1.282127
6914.811000,-1.304278
6917.809000,-1.286832
6920.810000,-1.278785
6923.810000,-1.281355
6926.810000,-1.276790
6929.810000,-1.271409
6932.808000,-1.295671
6935.808000,-1.283970
6938.808000,-1.279435
6941.809000,-1.297989
6944.809000,-1.287169
6947.807000,-1.271694
6950.807000,-1.284758
6953.807000,-1.300505
6956.807000,-1.293845
6959.807000,-1.288284
6962.806000,-1.270256
6965.806000,-1.292407
6968.806000,-1.298781
6971.806000,-1.291717
6974.806000,-1.286733
6977.806000,-1.272058
6980.804000,-1.273401
6983.804000,-1.281444
6986.805000,-1.291771
6989.805000,-1.298764
6992.805000,-1.294182
6995.803000,-1.292971
6998.803000,-1.300722
7001.803000,-1.295184
7004.803000,-1.275352
7007.804000,-1.287882
7010.804000,-1.305158
7013.802000,-1.300192
7016.802000,-1.302143
7019.802000,-1.305821
7022.802000,-1.311957
7025.802000,-1.304115
7028.801000,-1.285241
7031.801000,-1.305257
7034.801000,-1.291003
7037.801000,-1.298009
7040.801000,-1.310492
7043.799000,-1.306331
7046.799000,-1.315999
7049.799000,-1.309183
7052.800000,-1.297109
7055.800000,-1.299940
7058.800000,-1.322050
7061.798000,-1.322706
7064.798000,-1.323631
7067.798000,-1.325039
7070.798000,-1.303890
7073.799000,-1.320402
7076.797000,-1.317196
7079.797000,-1.308959
7082.797000,-1.310149
7085.796000,-1.333007
7088.796000,-1.330790
7091.796000,-1.322989
7094.797000,-1.332456
7097.797000,-1.334741
7100.795000,-1.327615
7103.795000,-1.336790
7106.795000,-1.345632
7109.795000,-1.344912
7112.795000,-1.343763
7115.793000,-1.342301
7118.794000,-1.351741
7121.794000,-1.343209
7124.794000,-1.352054
7127.794000,-1.361511
7130.792000,-1.359546
7133.792000,-1.353795
7136.792000,-1.359074
7139.793000,-1.341240
7142.793000,-1.364686
7145.793000,-1.365414
7148.791000,-1.370972
7151.791000,-1.358992
7154.791000,-1.350749
7157.791000,-1.365431
7160.792000,-1.373250
7163.792000,-1.353591
7166.790000,-1.374405
7169.790000,-1.383859
7172.790000,-1.383570
7175.790000,-1.380949
7178.788000,-1.370690
7181.788000,-1.378651
7184.789000,-1.393408
7187.789000,-1.391981
7190.788000,-1.394938
7193.788000,-1.393565
7196.788000,-1.401003
7199.788000,-1.400190
7202.786000,-1.388513
7205.787000,-1.396590
