Time(s),Position(V)
0.338000,1.651227
3.352000,1.645992
6.350000,1.645197
9.350000,1.672664
12.350000,1.657122
15.351000,1.654746
18.351000,1.657853
21.351000,1.639581
24.349000,1.629331
27.349000,1.619401
30.349000,1.604906
33.349000,1.589908
36.347000,1.569538
39.348000,1.554676
42.348000,1.527528
45.348000,1.505506
48.348000,1.481244
51.348000,1.452658
54.346000,1.423453
57.346000,1.391301
60.347000,1.357813
63.347000,1.327687
66.347000,1.286054
69.345000,1.246800
72.345000,1.208594
75.345000,1.166481
78.345000,1.125201
81.346000,1.081855
84.346000,1.036693
87.344000,0.987278
90.344000,0.935698
93.344000,0.886168
96.344000,0.835992
99.344000,0.783250
102.342000,0.729596
105.343000,0.673654
108.343000,0.616224
111.343000,0.556397
114.343000,0.496570
117.341000,0.435576
120.341000,0.373812
123.341000,0.316021
126.342000,0.248504
129.342000,0.184985
132.340000,0.121487
135.340000,0.054310
138.340000,-0.010735
141.340000,-0.078589
144.340000,-0.143920
147.341000,-0.208448
150.339000,-0.276991
153.339000,-0.344590
156.339000,-0.414700
159.339000,-0.484328
162.339000,-0.554683
165.337000,-0.625783
168.338000,-0.694343
171.338000,-0.764138
174.337000,-0.831073
177.337000,-0.899351
180.337000,-0.967371
183.337000,-1.035333
186.337000,-1.104577
189.335000,-1.174466
192.336000,-1.244159
195.336000,-1.315819
198.336000,-1.388201
201.336000,-1.456186
204.334000,-1.524502
207.334000,-1.592556
210.334000,-1.652893
213.335000,-1.712451
216.335000,-1.771299
219.335000,-1.825579
222.333000,-1.884614
225.333000,-1.943740
228.333000,-2.004679
231.333000,-2.069690
234.333000,-2.137296
237.332000,-2.199975
240.332000,-2.258894
243.332000,-2.312742
246.332000,-2.360831
249.332000,-2.406101
252.330000,-2.448380
255.330000,-2.488728
258.331000,-2.534298
261.331000,-2.581612
264.331000,-2.631084
267.331000,-2.683501
270.329000,-2.732014
273.329000,-2.777523
276.329000,-2.818493
279.330000,-2.852705
282.330000,-2.887332
285.328000,-2.914171
288.328000,-2.939531
291.328000,-2.962739
294.328000,-2.983666
297.328000,-3.007146
300.326000,-3.028005
303.327000,-3.049425
306.327000,-3.070026
309.327000,-3.084902
312.327000,-3.100298
315.327000,-3.118927
318.325000,-3.133134
321.325000,-3.152167
324.326000,-3.162903
327.326000,-3.170790
330.325000,-3.177803
333.325000,-3.171000
336.325000,-3.182807
339.325000,-3.173360
342.323000,-3.169824
345.324000,-3.162556
348.324000,-3.161268
351.324000,-3.156383
354.324000,-3.138559
357.322000,-3.120464
360.322000,-3.107060
363.322000,-3.093561
366.323000,-3.076574
369.323000,-3.062728
372.321000,-3.040352
375.321000,-3.020612
378.321000,-3.000422
381.321000,-2.980447
384.321000,-2.960319
387.319000,-2.936709
390.320000,-2.913702
393.320000,-2.889481
396.320000,-2.864196
399.320000,-2.835728
402.320000,-2.803335
405.318000,-2.768824
408.318000,-2.732966
411.319000,-2.690558
414.319000,-2.643588
417.319000,-2.597868
420.317000,-2.554117
423.317000,-2.512528
426.317000,-2.470450
429.317000,-2.435360
432.318000,-2.395505
435.318000,-2.356863
438.316000,-2.318354
441.316000,-2.276497
444.316000,-2.229054
447.316000,-2.178970
450.316000,-2.125333
453.314000,-2.071594
456.315000,-2.013769
459.315000,-1.962618
462.315000,-1.907631
465.315000,-1.857680
468.313000,-1.807062
471.313000,-1.760819
474.313000,-1.708484
477.314000,-1.665297
480.314000,-1.615030
483.312000,-1.563079
486.312000,-1.507705
489.312000,-1.452841
492.312000,-1.397410
495.312000,-1.339190
498.313000,-1.278738
501.311000,-1.225101
504.311000,-1.172593
507.311000,-1.118545
510.311000,-1.067200
513.311000,-1.013022
516.309000,-0.964420
519.309000,-0.909716
522.310000,-0.858932
525.310000,-0.811693
528.310000,-0.762312
531.308000,-0.710464
534.308000,-0.661052
537.308000,-0.610873
540.308000,-0.559918
543.309000,-0.511303
546.309000,-0.465016
549.307000,-0.416886
552.307000,-0.374389
555.307000,-0.326454
558.307000,-0.285371
561.307000,-0.236868
564.306000,-0.193824
567.306000,-0.153775
570.306000,-0.116805
573.306000,-0.073884
576.306000,-0.033576
579.304000,0.002859
582.304000,0.030558
585.304000,0.066993
588.305000,0.105108
591.305000,0.138892
594.303000,0.170959
597.303000,0.200106
600.303000,0.231075
603.303000,0.263377
606.303000,0.287013
609.304000,0.310554
612.302000,0.340089
615.302000,0.364586
618.302000,0.385417
621.302000,0.407507
624.302000,0.424651
627.300000,0.437297
630.301000,0.456014
633.301000,0.474606
636.301000,0.484814
639.301000,0.498293
642.301000,0.508039
645.299000,0.513482
648.299000,0.522739
651.299000,0.536316
654.299000,0.534851
657.299000,0.545954
660.299000,0.545382
663.299000,0.546232
666.299000,0.549764
669.297000,0.545046
672.297000,0.550764
675.298000,0.536279
678.298000,0.525023
681.298000,0.517459
684.296000,0.515491
687.296000,0.500000
690.296000,0.488849
693.296000,0.476710
696.297000,0.460501
699.295000,0.442841
702.295000,0.426408
705.295000,0.406069
708.295000,0.388525
711.295000,0.370079
714.295000,0.350896
717.293000,0.328456
720.294000,0.306669
723.294000,0.279592
726.294000,0.255881
729.294000,0.229810
732.292000,0.205222
735.292000,0.177693
738.292000,0.149689
741.293000,0.119569
744.293000,0.091174
747.291000,0.057376
750.291000,0.025442
753.291000,-0.004589
756.291000,-0.040460
759.291000,-0.072871
762.290000,-0.109051
765.290000,-0.142529
768.290000,-0.178251
771.290000,-0.213510
774.290000,-0.250819
777.290000,-0.287825
780.288000,-0.326698
783.288000,-0.363514
786.289000,-0.404560
789.289000,-0.445251
792.289000,-0.483859
795.287000,-0.524894
798.287000,-0.564807
801.287000,-0.608575
804.287000,-0.649453
807.288000,-0.690298
810.288000,-0.731333
813.286000,-0.772408
816.286000,-0.809459
819.286000,-0.850831
822.286000,-0.891505
825.286000,-0.932931
828.285000,-0.971270
831.285000,-1.012363
834.285000,-1.053180
837.285000,-1.095524
840.285000,-1.136117
843.283000,-1.177179
846.283000,-1.218601
849.283000,-1.260755
852.284000,-1.302096
855.284000,-1.343243
858.282000,-1.385732
861.282000,-1.426604
864.282000,-1.464002
867.282000,-1.505009
870.282000,-1.542145
873.283000,-1.580423
876.281000,-1.614727
879.281000,-1.648089
882.281000,-1.682492
885.281000,-1.711414
888.281000,-1.743118
891.279000,-1.774457
894.280000,-1.800361
897.280000,-1.830702
900.280000,-1.858703
903.280000,-1.887921
906.278000,-1.916008
909.278000,-1.943282
912.278000,-1.970195
915.278000,-2.000223
918.279000,-2.026990
921.277000,-2.055807
924.277000,-2.081626
927.277000,-2.109580
930.277000,-2.131034
933.276000,-2.154497
936.276000,-2.179208
939.277000,-2.199288
942.277000,-2.218971
945.277000,-2.237566
948.275000,-2.256369
951.275000,-2.269854
954.275000,-2.286308
957.275000,-2.298484
960.276000,-2.310614
963.274000,-2.317117
966.274000,-2.328420
969.274000,-2.335545
972.274000,-2.344870
975.274000,-2.347573
978.272000,-2.351893
981.272000,-2.354858
984.273000,-2.356513
987.273000,-2.354681
990.273000,-2.361544
993.271000,-2.357434
996.271000,-2.362031
999.271000,-2.348164
1002.271000,-2.352985
1005.272000,-2.343585
1008.272000,-2.343656
1011.270000,-2.341120
1014.270000,-2.332680
1017.270000,-2.323114
1020.270000,-2.312956
1023.270000,-2.306480
1026.269000,-2.298525
1029.269000,-2.285036
1032.269000,-2.270656
1035.269000,-2.264745
1038.269000,-2.250355
1041.269000,-2.234354
1044.267000,-2.216935
1047.267000,-2.200866
1050.268000,-2.182005
1053.268000,-2.168401
1056.268000,-2.142629
1059.266000,-2.120866
1062.266000,-2.100932
1065.266000,-2.076265
1068.266000,-2.055345
1071.267000,-2.029352
1074.265000,-2.006314
1077.265000,-1.980234
1080.265000,-1.954830
1083.265000,-1.930197
1086.265000,-1.904517
1089.263000,-1.880425
1092.264000,-1.855528
1095.264000,-1.832123
1098.264000,-1.807116
1101.264000,-1.783395
1104.264000,-1.758018
1107.262000,-1.731893
1110.262000,-1.706594
1113.262000,-1.681635
1116.263000,-1.656126
1119.263000,-1.629997
1122.261000,-1.603172
1125.261000,-1.573281
1128.261000,-1.542091
1131.261000,-1.515527
1134.261000,-1.483787
1137.262000,-1.454194
1140.260000,-1.440178
1143.260000,-1.407112
1146.260000,-1.361780
1149.260000,-1.329318
1152.260000,-1.295922
1155.258000,-1.266153
1158.259000,-1.238288
1161.259000,-1.207149
1164.259000,-1.178559
1167.259000,-1.151119
1170.257000,-1.121928
1173.257000,-1.092390
1176.257000,-1.064609
1179.257000,-1.036016
1182.258000,-1.009528
1185.256000,-0.983610
1188.256000,-0.956578
1191.256000,-0.933414
1194.256000,-0.907279
1197.256000,-0.879777
1200.256000,-0.852697
1203.255000,-0.830312
1206.255000,-0.806607
1209.255000,-0.785201
1212.255000,-0.760901
1215.255000,-0.737992
1218.253000,-0.714458
1221.253000,-0.696434
1224.254000,-0.673698
1227.254000,-0.648950
1230.254000,-0.630712
1233.252000,-0.609581
1236.252000,-0.593910
1239.252000,-0.568737
1242.252000,-0.550356
1245.252000,-0.532570
1248.253000,-0.512020
1251.251000,-0.501920
1254.251000,-0.481234
1257.251000,-0.463666
1260.250000,-0.451540
1263.250000,-0.435750
1266.250000,-0.420700
1269.251000,-0.406334
1272.251000,-0.394409
1275.249000,-0.385591
1278.249000,-0.381063
1281.249000,-0.373009
1284.249000,-0.362192
1287.249000,-0.342604
1290.248000,-0.355774
1293.248000,-0.335279
1296.248000,-0.344726
1299.248000,-0.319328
1302.248000,-0.317285
1305.246000,-0.313457
1308.246000,-0.324757
1311.246000,-0.310133
1314.247000,-0.318978
1317.247000,-0.302436
1320.245000,-0.308270
1323.245000,-0.311479
1326.245000,-0.316191
1329.245000,-0.322857
1332.245000,-0.325148
1335.246000,-0.315963
1338.244000,-0.326967
1341.244000,-0.339270
1344.244000,-0.335554
1347.244000,-0.350046
1350.244000,-0.352572
1353.242000,-0.361835
1356.243000,-0.373519
1359.243000,-0.377299
1362.243000,-0.392135
1365.243000,-0.397009
1368.243000,-0.409897
1371.241000,-0.422376
1374.241000,-0.431041
1377.241000,-0.442576
1380.242000,-0.458088
1383.242000,-0.469737
1386.240000,-0.482795
1389.240000,-0.498837
1392.240000,-0.512795
1395.240000,-0.529381
1398.240000,-0.545957
1401.239000,-0.560857
1404.239000,-0.579744
1407.239000,-0.598193
1410.239000,-0.617040
1413.239000,-0.634288
1416.237000,-0.651802
1419.237000,-0.670833
1422.238000,-0.690040
1425.238000,-0.708662
1428.238000,-0.730293
1431.238000,-0.751141
1434.236000,-0.770495
1437.236000,-0.791333
1440.236000,-0.809582
1443.236000,-0.830138
1446.237000,-0.853326
1449.235000,-0.874912
1452.235000,-0.896210
1455.235000,-0.919452
1458.235000,-0.938931
1461.235000,-0.960541
1464.233000,-0.984973
1467.234000,-1.004068
1470.234000,-1.029357
1473.234000,-1.049016
1476.234000,-1.057045
1479.234000,-1.063436
1482.232000,-1.081872
1485.232000,-1.108228
1488.233000,-1.131011
1491.233000,-1.154576
1494.233000,-1.198534
1497.231000,-1.237917
1500.231000,-1.261220
1503.231000,-1.281923
1506.231000,-1.305624
1509.231000,-1.331548
1512.230000,-1.356823
1515.230000,-1.379821
1518.230000,-1.404222
1521.230000,-1.426713
1524.230000,-1.448453
1527.230000,-1.467891
1530.228000,-1.490619
1533.229000,-1.513722
1536.229000,-1.533857
1539.229000,-1.554716
1542.229000,-1.575008
1545.227000,-1.593905
1548.227000,-1.613061
1551.227000,-1.628366
1554.228000,-1.647811
1557.228000,-1.663740
1560.226000,-1.681091
1563.226000,-1.697130
1566.226000,-1.709480
1569.226000,-1.726053
1572.226000,-1.739678
1575.226000,-1.755703
1578.225000,-1.770541
1581.225000,-1.781508
1584.225000,-1.793522
1587.225000,-1.801109
1590.225000,-1.816482
1593.223000,-1.827170
1596.223000,-1.836831
1599.224000,-1.847964
1602.224000,-1.860821
1605.224000,-1.866535
1608.222000,-1.877434
1611.222000,-1.886296
1614.222000,-1.897192
1617.222000,-1.902855
1620.223000,-1.907274
1623.221000,-1.916752
1626.221000,-1.922626
1629.221000,-1.925326
1632.221000,-1.931349
1635.221000,-1.939216
1638.221000,-1.937761
1641.219000,-1.944176
1644.220000,-1.949537
1647.220000,-1.950760
1650.220000,-1.938662
1653.220000,-1.945025
1656.218000,-1.953395
1659.218000,-1.940300
1662.218000,-1.942853
1665.219000,-1.949220
1668.219000,-1.934368
1671.217000,-1.943509
1674.217000,-1.945280
1677.217000,-1.923401
1680.217000,-1.931043
1683.217000,-1.920413
1686.218000,-1.921936
1689.216000,-1.903977
1692.216000,-1.901550
1695.217000,-1.902978
1698.215000,-1.884651
1701.215000,-1.879593
1704.215000,-1.888707
1707.215000,-1.860430
1710.216000,-1.866726
1713.214000,-1.844687
1716.214000,-1.834849
1719.214000,-1.823454
1722.214000,-1.810638
1725.214000,-1.803509
1728.212000,-1.789636
1731.213000,-1.783514
1734.213000,-1.771446
1737.213000,-1.757161
1740.213000,-1.741955
1743.213000,-1.732620
1746.211000,-1.717415
1749.211000,-1.704803
1752.212000,-1.689750
1755.212000,-1.675924
1758.212000,-1.665399
1761.210000,-1.647243
1764.210000,-1.630891
1767.210000,-1.615832
1770.210000,-1.605508
1773.210000,-1.584115
1776.209000,-1.566329
1779.209000,-1.546520
1782.209000,-1.529904
1785.209000,-1.516085
1788.209000,-1.497758
1791.207000,-1.474571
1794.207000,-1.454371
1797.208000,-1.439866
1800.208000,-1.445267
1803.208000,-1.413064
1806.207000,-1.379297
1809.207000,-1.364921
1812.207000,-1.342957
1815.205000,-1.323104
1818.206000,-1.300301
1821.206000,-1.283205
1824.206000,-1.264365
1827.206000,-1.245964
1830.206000,-1.226488
1833.204000,-1.212166
1836.204000,-1.192742
1839.204000,-1.171281
1842.205000,-1.158767
1845.205000,-1.137409
1848.203000,-1.121554
1851.203000,-1.104284
1854.203000,-1.085829
1857.203000,-1.069011
1860.203000,-1.050277
1863.202000,-1.032399
1866.202000,-1.020440
1869.202000,-1.009263
1872.202000,-0.986935
1875.202000,-0.989342
1878.202000,-0.955340
1881.200000,-0.941267
1884.201000,-0.943218
1887.201000,-0.911348
1890.201000,-0.892770
1893.201000,-0.881640
1896.199000,-0.867043
1899.199000,-0.860873
1902.199000,-0.840612
1905.200000,-0.839337
1908.200000,-0.817795
1911.198000,-0.806339
1914.198000,-0.796113
1917.198000,-0.784701
1920.198000,-0.776131
1923.198000,-0.787533
1926.197000,-0.756411
1929.198000,-0.759926
1932.197000,-0.737251
1935.197000,-0.728012
1938.197000,-0.719805
1941.197000,-0.712201
1944.195000,-0.728487
1947.195000,-0.709267
1950.196000,-0.693966
1953.196000,-0.691841
1956.196000,-0.705089
1959.194000,-0.676421
1962.194000,-0.670227
1965.194000,-0.667277
1968.194000,-0.690131
1971.195000,-0.668725
1974.195000,-0.658353
1977.193000,-0.678832
1980.193000,-0.672138
1983.192000,-0.658676
1986.192000,-0.676245
1989.192000,-0.660423
1992.192000,-0.661885
1995.193000,-0.678403
1998.191000,-0.671883
2001.191000,-0.681085
2004.191000,-0.688387
2007.191000,-0.690954
2010.191000,-0.686827
2013.191000,-0.698117
2016.190000,-0.697913
2019.190000,-0.692249
2022.190000,-0.696672
2025.190000,-0.712796
2028.190000,-0.720179
2031.188000,-0.720944
2034.188000,-0.727206
2037.189000,-0.735650
2040.189000,-0.742687
2043.189000,-0.751114
2046.189000,-0.757267
2049.187000,-0.763118
2052.187000,-0.772412
2055.187000,-0.781781
2058.187000,-0.789266
2061.188000,-0.795991
2064.186000,-0.802735
2067.186000,-0.812152
2070.186000,-0.822415
2073.186000,-0.832875
2076.186000,-0.842431
2079.184000,-0.851983
2082.185000,-0.863334
2085.185000,-0.873947
2088.185000,-0.883115
2091.185000,-0.893290
2094.183000,-0.906347
2097.183000,-0.920027
2100.183000,-0.925847
2103.184000,-0.941827
2106.184000,-0.951818
2109.184000,-0.961945
2112.182000,-0.974948
2115.182000,-0.989940
2118.182000,-0.999894
2121.182000,-1.012699
2124.182000,-1.026600
2127.181000,-1.036754
2130.181000,-1.050420
2133.181000,-1.060662
2136.181000,-1.075640
2139.180000,-1.089371
2142.180000,-1.102129
2145.180000,-1.115560
2148.181000,-1.127421
2151.179000,-1.138755
2154.179000,-1.153621
2157.179000,-1.167847
2160.179000,-1.179718
2163.179000,-1.191800
2166.179000,-1.205969
2169.178000,-1.218448
2172.178000,-1.232148
2175.178000,-1.245393
2178.178000,-1.260473
2181.178000,-1.274261
2184.176000,-1.287920
2187.176000,-1.298292
2190.176000,-1.312311
2193.177000,-1.324263
2196.177000,-1.336338
2199.175000,-1.351656
2202.175000,-1.365173
2205.175000,-1.375979
2208.175000,-1.387568
2211.175000,-1.400796
2214.174000,-1.413054
2217.175000,-1.424357
2220.175000,-1.436306
2223.173000,-1.447086
2226.173000,-1.454867
2229.173000,-1.464712
2232.173000,-1.472827
2235.174000,-1.486258
2238.172000,-1.493917
2241.172000,-1.506832
2244.172000,-1.516098
2247.172000,-1.525423
2250.172000,-1.533222
2253.172000,-1.539378
2256.170000,-1.549471
2259.171000,-1.556933
2262.171000,-1.566145
2265.171000,-1.575579
2268.171000,-1.577693
2271.169000,-1.584407
2274.169000,-1.591587
2277.169000,-1.598467
2280.170000,-1.599756
2283.170000,-1.608278
2286.168000,-1.609522
2289.168000,-1.615373
2292.168000,-1.623171
2295.168000,-1.625303
2298.168000,-1.627434
2301.169000,-1.629022
2304.167000,-1.633679
2307.167000,-1.634328
2310.167000,-1.638479
2313.167000,-1.641110
2316.167000,-1.627461
2319.165000,-1.621257
2322.165000,-1.638278
2325.166000,-1.643758
2328.166000,-1.642586
2331.166000,-1.631571
2334.166000,-1.622937
2337.164000,-1.635216
2340.164000,-1.641110
2343.164000,-1.619106
2346.165000,-1.633302
2349.165000,-1.619806
2352.163000,-1.629504
2355.163000,-1.622189
2358.163000,-1.603196
2361.163000,-1.617569
2364.163000,-1.614584
2367.162000,-1.595721
2370.162000,-1.597635
2373.162000,-1.589619
2376.162000,-1.583313
2379.162000,-1.574919
2382.160000,-1.586613
2385.160000,-1.572917
2388.160000,-1.556440
2391.161000,-1.569813
2394.161000,-1.560468
2397.161000,-1.535938
2400.159000,-1.531814
2403.159000,-1.526120
2406.159000,-1.515296
2409.159000,-1.507746
2412.160000,-1.498459
2415.158000,-1.492200
2418.158000,-1.478344
2421.158000,-1.474329
2424.158000,-1.458423
2427.158000,-1.454799
2430.156000,-1.445638
2433.157000,-1.435966
2436.157000,-1.432594
2439.157000,-1.414081
2442.157000,-1.407302
2445.155000,-1.396587
2448.155000,-1.383173
2451.155000,-1.376704
2454.155000,-1.369721
2457.156000,-1.353053
2460.156000,-1.341077
2463.154000,-1.327292
2466.154000,-1.314422
2469.154000,-1.302133
2472.154000,-1.296558
2475.154000,-1.279564
2478.153000,-1.271732
2481.153000,-1.257835
2484.153000,-1.249200
2487.153000,-1.241177
2490.153000,-1.227658
2493.151000,-1.216378
2496.151000,-1.201631
2499.152000,-1.196182
2502.152000,-1.178902
2505.152000,-1.172760
2508.152000,-1.163931
2511.150000,-1.151153
2514.150000,-1.132887
2517.150000,-1.126109
2520.150000,-1.109700
2523.151000,-1.102806
2526.149000,-1.088113
2529.149000,-1.078282
2532.149000,-1.066588
2535.149000,-1.061257
2538.149000,-1.047846
2541.147000,-1.038447
2544.148000,-1.025060
2547.148000,-1.036108
2550.148000,-1.008056
2553.148000,-1.000645
2556.148000,-0.988087
2559.146000,-0.985422
2562.146000,-0.981985
2565.147000,-0.963298
2568.147000,-0.953188
2571.147000,-0.954847
2574.145000,-0.936331
2577.145000,-0.942062
2580.145000,-0.920618
2583.145000,-0.934498
2586.145000,-0.911042
2589.144000,-0.902611
2592.144000,-0.895489
2595.144000,-0.912606
2598.144000,-0.884275
2601.143000,-0.880297
2604.143000,-0.872098
2607.143000,-0.870745
2610.144000,-0.865142
2613.142000,-0.866638
2616.142000,-0.853343
2619.142000,-0.844195
2622.142000,-0.851262
2625.141000,-0.843828
2628.141000,-0.859408
2631.142000,-0.834636
2634.142000,-0.831698
2637.140000,-0.842067
2640.140000,-0.841190
2643.141000,-0.827793
2646.140000,-0.833412
2649.140000,-0.829159
2652.138000,-0.828877
2655.139000,-0.833633
2658.139000,-0.842369
2661.139000,-0.850440
2664.139000,-0.843379
2667.139000,-0.843454
2670.137000,-0.848726
2673.137000,-0.827854
2676.138000,-0.837947
2679.138000,-0.834119
2682.138000,-0.845694
2685.136000,-0.840935
2688.136000,-0.849773
2691.136000,-0.862647
2694.136000,-0.862841
2697.137000,-0.865958
2700.137000,-0.870218
2703.135000,-0.869086
2706.135000,-0.875266
2709.135000,-0.877075
2712.135000,-0.883822
2715.135000,-0.886644
2718.133000,-0.893813
2721.134000,-0.895224
2724.134000,-0.900323
2727.134000,-0.902802
2730.133000,-0.902710
2733.133000,-0.920367
2736.133000,-0.924664
2739.133000,-0.925969
2742.132000,-0.931789
2745.132000,-0.943843
2748.132000,-0.946012
2751.132000,-0.947957
2754.132000,-0.957091
2757.130000,-0.963825
2760.130000,-0.974812
2763.131000,-0.980921
2766.131000,-0.989012
2769.131000,-0.993652
2772.129000,-0.985748
2775.129000,-1.007400
2778.129000,-1.013855
2781.129000,-1.022422
2784.129000,-1.027552
2787.130000,-1.036934
2790.128000,-1.044301
2793.128000,-1.049757
2796.128000,-1.056274
2799.128000,-1.065055
2802.128000,-1.063045
2805.126000,-1.079662
2808.127000,-1.087661
2811.127000,-1.093858
2814.127000,-1.103288
2817.127000,-1.108350
2820.125000,-1.118324
2823.125000,-1.124035
2826.125000,-1.128696
2829.126000,-1.138371
2832.126000,-1.143371
2835.126000,-1.154304
2838.124000,-1.161538
2841.124000,-1.168425
2844.124000,-1.171434
2847.124000,-1.178892
2850.124000,-1.189808
2853.123000,-1.196043
2856.123000,-1.203895
2859.123000,-1.210840
2862.123000,-1.209015
2865.123000,-1.222341
2868.121000,-1.228327
2871.121000,-1.236163
2874.122000,-1.239610
2877.122000,-1.251199
2880.122000,-1.255305
2883.122000,-1.265494
2886.120000,-1.271827
2889.120000,-1.279051
2892.120000,-1.284697
2895.121000,-1.291496
2898.121000,-1.291999
2901.119000,-1.300481
2904.119000,-1.307586
2907.119000,-1.312552
2910.119000,-1.313732
2913.119000,-1.321190
2916.117000,-1.328758
2919.118000,-1.327184
2922.118000,-1.339687
2925.118000,-1.335363
2928.118000,-1.348230
2931.118000,-1.349076
2934.116000,-1.359315
2937.116000,-1.349080
2940.117000,-1.356025
2943.117000,-1.371798
2946.117000,-1.373389
2949.115000,-1.373460
2952.115000,-1.373862
2955.115000,-1.372923
2958.115000,-1.379967
2961.116000,-1.381582
2964.114000,-1.383278
2967.114000,-1.388877
2970.114000,-1.389122
2973.114000,-1.393701
2976.114000,-1.394068
2979.114000,-1.382098
2982.112000,-1.373005
2985.113000,-1.388024
2988.113000,-1.390791
2991.113000,-1.372968
2994.113000,-1.395275
2997.111000,-1.377404
3000.111000,-1.393680
3003.111000,-1.392076
3006.112000,-1.373831
3009.112000,-1.391049
3012.110000,-1.378359
3015.110000,-1.372607
3018.110000,-1.366937
3021.109000,-1.377023
3024.109000,-1.378526
3027.110000,-1.355481
3030.110000,-1.362783
3033.110000,-1.358360
3036.108000,-1.370554
3039.108000,-1.348865
3042.108000,-1.342862
3045.108000,-1.351031
3048.108000,-1.339292
3051.107000,-1.332565
3054.107000,-1.332674
3057.107000,-1.346295
3060.107000,-1.329301
3063.107000,-1.337559
3066.107000,-1.312695
3069.105000,-1.306637
3072.106000,-1.305396
3075.106000,-1.313232
3078.106000,-1.315058
3081.106000,-1.285323
3084.104000,-1.304761
3087.104000,-1.290959
3090.104000,-1.272357
3093.105000,-1.279537
3096.105000,-1.266697
3099.105000,-1.263790
3102.103000,-1.250900
3105.103000,-1.268349
3108.103000,-1.258324
3111.103000,-1.244152
3114.103000,-1.249190
3117.102000,-1.228841
3120.102000,-1.246657
3123.102000,-1.222337
3126.102000,-1.228351
3129.102000,-1.208376
3132.100000,-1.205201
3135.100000,-1.218778
3138.101000,-1.197277
3141.101000,-1.191300
3144.101000,-1.182050
3147.099000,-1.181231
3150.099000,-1.179701
3153.099000,-1.186307
3156.099000,-1.162956
3159.100000,-1.181207
3162.100000,-1.152444
3165.098000,-1.146465
3168.098000,-1.144983
3171.098000,-1.134033
3174.098000,-1.131466
3177.098000,-1.131592
3180.096000,-1.123607
3183.097000,-1.116220
3186.097000,-1.113990
3189.097000,-1.115295
3192.097000,-1.115285
3195.095000,-1.100361
3198.095000,-1.112225
3201.095000,-1.095799
3204.096000,-1.106977
3207.096000,-1.083442
3210.096000,-1.078006
3213.094000,-1.074393
3216.094000,-1.071075
3219.094000,-1.067873
3222.094000,-1.073655
3225.095000,-1.052912
3228.094000,-1.052657
3231.094000,-1.070422
3234.094000,-1.047452
3237.092000,-1.060574
3240.092000,-1.043689
3243.092000,-1.035000
3246.092000,-1.048074
3249.093000,-1.028184
3252.091000,-1.046473
3255.091000,-1.029350
3258.091000,-1.015426
3261.091000,-1.028113
3264.091000,-1.011996
3267.089000,-1.015864
3270.090000,-1.027429
3273.090000,-1.008457
3276.090000,-1.013760
3279.090000,-1.000193
3282.090000,-0.993662
3285.088000,-1.009939
3288.088000,-0.999102
3291.089000,-0.988536
3294.089000,-0.993105
3297.089000,-0.992483
3300.087000,-1.002691
3303.087000,-0.980673
3306.087000,-1.003222
3309.087000,-0.983634
3312.087000,-0.996470
3315.086000,-0.994448
3318.086000,-0.977790
3321.086000,-0.975747
3324.086000,-0.971865
3327.086000,-0.976686
3330.086000,-0.980078
3333.084000,-0.977590
3336.085000,-0.984399
3339.085000,-0.967721
3342.085000,-0.978851
3345.085000,-0.989892
3348.083000,-0.969411
3351.083000,-0.975237
3354.083000,-0.968200
3357.084000,-0.964142
3360.084000,-0.970655
3363.082000,-0.977974
3366.082000,-0.990477
3369.082000,-0.982247
3372.082000,-0.975836
3375.082000,-0.961969
3378.082000,-0.984535
3381.081000,-0.967888
3384.081000,-0.966334
3387.081000,-0.984222
3390.081000,-0.975469
3393.081000,-0.983943
3396.079000,-0.996035
3399.079000,-0.993360
3402.080000,-0.976448
3405.080000,-0.995420
3408.080000,-0.998955
3411.078000,-1.003072
3414.078000,-1.001961
3417.078000,-0.988665
3420.078000,-1.006322
3423.079000,-1.008654
3426.079000,-1.006094
3429.077000,-1.011544
3432.077000,-1.012846
3435.077000,-1.017224
3438.077000,-1.007862
3441.077000,-1.012648
3444.075000,-1.026103
3447.076000,-1.005809
3450.076000,-1.019532
3453.076000,-1.016102
3456.076000,-1.026824
3459.074000,-1.031366
3462.074000,-1.014715
3465.074000,-1.033287
3468.075000,-1.040313
3471.075000,-1.045106
3474.073000,-1.045147
3477.073000,-1.047041
3480.073000,-1.047102
3483.073000,-1.048649
3486.073000,-1.029068
3489.074000,-1.028809
3492.072000,-1.052844
3495.072000,-1.055811
3498.072000,-1.047126
3501.072000,-1.059850
3504.072000,-1.057334
3507.070000,-1.064997
3510.071000,-1.060951
3513.071000,-1.068002
3516.070000,-1.070483
3519.070000,-1.072306
3522.070000,-1.074413
3525.070000,-1.077819
3528.070000,-1.074954
3531.068000,-1.053911
3534.069000,-1.075739
3537.069000,-1.087797
3540.069000,-1.087834
3543.069000,-1.088538
3546.069000,-1.088150
3549.067000,-1.094419
3552.067000,-1.091730
3555.068000,-1.087277
3558.068000,-1.096374
3561.068000,-1.103870
3564.066000,-1.102132
3567.066000,-1.086070
3570.066000,-1.093171
3573.066000,-1.108054
3576.066000,-1.107323
3579.065000,-1.113103
3582.065000,-1.108948
3585.065000,-1.116094
3588.065000,-1.108258
3591.065000,-1.121836
3594.065000,-1.122873
3597.063000,-1.122611
3600.064000,-1.118630
3603.063000,-1.127819
3606.063000,-1.128628
3609.063000,-1.130875
3612.063000,-1.128635
3615.063000,-1.130946
3618.061000,-1.128546
3621.062000,-1.124943
3624.062000,-1.135655
3627.062000,-1.133741
3630.062000,-1.142198
3633.062000,-1.130851
3636.060000,-1.137511
3639.060000,-1.147831
3642.061000,-1.146767
3645.061000,-1.154980
3648.061000,-1.157295
3651.059000,-1.159226
3654.059000,-1.159172
3657.059000,-1.160321
3660.059000,-1.159182
3663.059000,-1.165757
3666.058000,-1.165923
3669.058000,-1.161456
3672.058000,-1.144136
3675.058000,-1.162843
3678.058000,-1.161667
3681.058000,-1.161038
3684.056000,-1.169829
3687.057000,-1.166590
3690.057000,-1.166253
3693.057000,-1.175132
3696.057000,-1.175778
3699.055000,-1.172637
3702.055000,-1.169469
3705.055000,-1.180218
3708.056000,-1.179633
3711.056000,-1.180986
3714.054000,-1.161467
3717.054000,-1.183835
3720.054000,-1.179538
3723.054000,-1.187449
3726.054000,-1.181014
3729.054000,-1.168561
3732.053000,-1.159937
3735.053000,-1.169221
3738.053000,-1.188910
3741.053000,-1.199938
3744.053000,-1.200023
3747.051000,-1.194805
3750.051000,-1.189832
3753.052000,-1.199180
3756.052000,-1.201312
3759.052000,-1.205411
3762.050000,-1.208019
3765.050000,-1.190083
3768.050000,-1.181105
3771.050000,-1.204436
3774.051000,-1.210575
3777.051000,-1.207693
3780.049000,-1.212258
3783.049000,-1.197215
3786.049000,-1.189828
3789.049000,-1.201879
3792.049000,-1.219737
3795.047000,-1.217537
3798.048000,-1.220937
3801.048000,-1.218843
3804.048000,-1.213244
3807.048000,-1.223218
3810.046000,-1.212210
3813.046000,-1.222677
3816.046000,-1.221906
3819.047000,-1.208308
3822.047000,-1.224914
3825.045000,-1.211388
3828.045000,-1.223435
3831.045000,-1.233576
3834.045000,-1.233569
3837.044000,-1.239685
3840.045000,-1.230493
3843.045000,-1.230299
3846.045000,-1.240674
3849.043000,-1.236687
3852.043000,-1.240783
3855.043000,-1.243999
3858.043000,-1.239324
3861.043000,-1.237788
3864.044000,-1.239039
3867.043000,-1.242585
3870.043000,-1.248619
3873.043000,-1.228433
3876.041000,-1.250774
3879.041000,-1.247249
3882.041000,-1.237145
3885.042000,-1.223340
3888.042000,-1.250961
3891.040000,-1.246511
3894.040000,-1.236877
3897.040000,-1.228348
3900.040000,-1.250519
3903.040000,-1.250889
3906.039000,-1.242629
3909.039000,-1.224438
3912.039000,-1.247327
3915.039000,-1.240575
3918.039000,-1.220610
3921.037000,-1.232859
3924.037000,-1.229503
3927.037000,-1.219686
3930.038000,-1.228256
3933.038000,-1.210246
3936.038000,-1.208726
3939.036000,-1.227576
3942.036000,-1.214124
3945.036000,-1.223986
3948.036000,-1.206962
3951.037000,-1.224173
3954.035000,-1.205004
3957.035000,-1.211425
3960.035000,-1.222208
3963.035000,-1.219064
3966.035000,-1.200414
3969.033000,-1.215926
3972.034000,-1.196002
3975.034000,-1.209804
3978.034000,-1.194775
3981.034000,-1.200537
3984.034000,-1.203855
3987.032000,-1.184926
3990.032000,-1.191844
3993.032000,-1.199561
3996.033000,-1.187007
3999.033000,-1.169958
4002.031000,-1.191861
4005.031000,-1.168497
4008.031000,-1.187177
4011.031000,-1.163588
4014.031000,-1.169085
4017.030000,-1.156459
4020.030000,-1.158638
4023.030000,-1.151207
4026.030000,-1.156316
4029.030000,-1.142892
4032.028000,-1.150313
4035.028000,-1.132034
4038.029000,-1.148787
4041.029000,-1.143813
4044.029000,-1.134818
4047.029000,-1.137755
4050.027000,-1.121843
4053.027000,-1.121509
4056.027000,-1.122539
4059.027000,-1.128244
4062.028000,-1.111005
4065.026000,-1.123617
4068.026000,-1.099352
4071.026000,-1.111926
4074.026000,-1.095490
4077.026000,-1.101357
4080.026000,-1.088052
4083.025000,-1.083864
4086.025000,-1.073036
4089.025000,-1.075311
4092.025000,-1.065021
4095.025000,-1.082606
4098.023000,-1.054125
4101.023000,-1.070905
4104.024000,-1.046395
4107.024000,-1.058177
4110.024000,-1.047693
4113.022000,-1.034973
4116.022000,-1.048285
4119.022000,-1.027864
4122.022000,-1.041744
4125.022000,-1.013090
4128.023000,-1.032790
4131.021000,-1.011452
4134.021000,-1.014909
4137.021000,-0.999873
4140.021000,-1.012618
4143.021000,-0.987302
4146.019000,-0.989525
4149.020000,-0.995787
4152.020000,-0.974088
4155.020000,-0.988335
4158.020000,-0.971019
4161.018000,-0.966722
4164.018000,-0.960990
4167.018000,-0.972511
4170.019000,-0.962173
4173.019000,-0.966796
4176.017000,-0.951611
4179.017000,-0.947474
4182.017000,-0.947226
4185.017000,-0.943150
4188.017000,-0.936779
4191.017000,-0.951183
4194.016000,-0.931265
4197.016000,-0.923423
4200.016000,-0.932333
4203.016000,-0.939135
4206.016000,-0.923161
4209.014000,-0.938955
4212.014000,-0.916070
4215.015000,-0.909825
4218.015000,-0.927288
4221.015000,-0.927013
4224.015000,-0.909624
4227.013000,-0.925966
4230.013000,-0.910923
4233.013000,-0.907037
4236.014000,-0.911355
4239.014000,-0.898715
4242.012000,-0.919347
4245.012000,-0.921723
4248.012000,-0.915533
4251.012000,-0.895935
4254.012000,-0.894521
4257.010000,-0.916525
4260.011000,-0.921699
4263.011000,-0.896679
4266.011000,-0.918381
4269.011000,-0.910301
4272.009000,-0.902638
4275.009000,-0.920503
4278.009000,-0.897526
4281.010000,-0.914628
4284.010000,-0.916049
4287.010000,-0.906898
4290.008000,-0.922896
4293.008000,-0.916250
4296.008000,-0.907928
4299.008000,-0.929198
4302.009000,-0.917379
4305.007000,-0.910552
4308.007000,-0.930793
4311.007000,-0.928172
4314.007000,-0.936766
4317.007000,-0.941063
4320.007000,-0.943497
4323.005000,-0.940719
4326.006000,-0.943374
4329.006000,-0.940311
4332.005000,-0.944822
4335.005000,-0.943327
4338.005000,-0.943877
4341.005000,-0.947671
4344.005000,-0.944278
4347.004000,-0.954450
4350.004000,-0.947222
4353.003000,-0.955323
4356.003000,-0.953661
4359.003000,-0.953267
4362.003000,-0.961147
4365.003000,-0.959902
4368.002000,-0.968517
4371.002000,-0.973918
4374.002000,-0.975326
4377.002000,-0.968102
4380.002000,-0.981258
4383.002000,-0.985850
4386.000000,-0.980061
4389.000000,-0.988485
4392.001000,-0.977617
4395.001000,-0.986003
4398.001000,-0.990596
4400.999000,-0.992405
4403.999000,-1.004993
4406.999000,-0.998214
4409.999000,-1.004864
4413.000000,-1.010979
4415.998000,-0.994094
4418.998000,-1.018737
4421.998000,-1.022663
4424.998000,-1.016058
4427.998000,-1.019022
4430.998000,-1.036101
4433.997000,-1.037356
4436.997000,-1.043930
4439.997000,-1.047027
4442.997000,-1.048938
4445.997000,-1.054686
4448.995000,-1.057701
4451.995000,-1.061655
4454.995000,-1.066887
4457.996000,-1.073597
4460.996000,-1.077333
4463.994000,-1.082358
4466.994000,-1.081729
4469.994000,-1.086614
4472.994000,-1.090177
4475.994000,-1.098175
4478.995000,-1.100140
4481.993000,-1.107011
4484.993000,-1.112484
4487.993000,-1.116172
4490.993000,-1.119694
4493.993000,-1.124589
4496.991000,-1.128703
4499.992000,-1.136477
4502.992000,-1.131106
4505.992000,-1.138694
4508.992000,-1.146869
4511.990000,-1.152356
4514.990000,-1.152706
4517.990000,-1.161919
4520.990000,-1.166692
4523.991000,-1.162276
4526.991000,-1.166913
4529.989000,-1.173827
4532.989000,-1.179698
4535.989000,-1.186711
4538.989000,-1.189465
4541.989000,-1.189601
4544.988000,-1.197922
4547.988000,-1.199388
4550.988000,-1.200611
4553.988000,-1.204055
4556.988000,-1.207750
4559.986000,-1.208882
4562.986000,-1.203933
4565.987000,-1.193245
4568.987000,-1.213574
4571.987000,-1.227056
4574.987000,-1.224605
4577.985000,-1.223949
4580.985000,-1.225495
4583.985000,-1.220641
4586.985000,-1.238257
4589.986000,-1.238906
4592.984000,-1.239110
4595.984000,-1.226169
4598.984000,-1.226485
4601.984000,-1.248833
4604.984000,-1.251005
4607.982000,-1.245117
4610.983000,-1.227107
4613.983000,-1.220852
4616.983000,-1.230190
4619.983000,-1.249020
4622.983000,-1.252096
4625.981000,-1.255268
4628.981000,-1.260445
4631.982000,-1.258022
4634.982000,-1.260265
4637.982000,-1.248581
4640.980000,-1.237822
4643.980000,-1.254874
4646.980000,-1.233957
4649.980000,-1.253789
4652.980000,-1.250458
4655.979000,-1.227654
4658.979000,-1.237618
4661.979000,-1.235021
4664.979000,-1.227811
4667.979000,-1.239236
4670.977000,-1.239372
4673.977000,-1.220243
4676.978000,-1.230663
4679.978000,-1.239005
4682.978000,-1.221661
4685.978000,-1.237322
4688.976000,-1.211717
4691.976000,-1.227729
4694.976000,-1.215385
4697.977000,-1.209800
4700.977000,-1.208260
4703.975000,-1.218057
4706.975000,-1.206030
4709.975000,-1.226335
4712.975000,-1.203518
4715.975000,-1.214481
4718.973000,-1.215226
4721.974000,-1.194938
4724.974000,-1.199762
4727.974000,-1.189033
4730.974000,-1.203753
4733.974000,-1.202270
4736.972000,-1.182632
4739.972000,-1.199853
4742.973000,-1.189607
4745.973000,-1.186786
4748.973000,-1.192680
4751.971000,-1.168527
4754.971000,-1.164740
4757.971000,-1.177849
4760.971000,-1.174721
4763.972000,-1.172372
4766.970000,-1.168891
4769.970000,-1.167069
4772.970000,-1.168323
4775.970000,-1.152264
4778.970000,-1.160576
4781.970000,-1.143602
4784.968000,-1.140067
4787.969000,-1.157877
4790.969000,-1.140376
4793.969000,-1.129009
4796.969000,-1.133360
4799.967000,-1.137174
4802.967000,-1.147186
4805.967000,-1.130300
4808.968000,-1.128723
4811.967000,-1.131772
4814.967000,-1.115734
4817.967000,-1.111760
4820.967000,-1.130851
4823.965000,-1.114371
4826.965000,-1.119711
4829.966000,-1.117760
4832.966000,-1.101551
4835.966000,-1.115458
4838.964000,-1.092995
4841.964000,-1.092580
4844.964000,-1.104900
4847.964000,-1.092539
4850.964000,-1.093093
4853.965000,-1.087355
4856.963000,-1.105926
4859.963000,-1.083194
4862.963000,-1.077561
4865.963000,-1.079410
4868.963000,-1.091604
4871.961000,-1.075838
4874.962000,-1.089993
4877.962000,-1.077170
4880.962000,-1.078632
4883.962000,-1.073842
4886.960000,-1.084132
4889.960000,-1.057916
4892.960000,-1.079128
4895.961000,-1.060642
4898.961000,-1.053235
4901.961000,-1.056484
4904.959000,-1.078975
4907.959000,-1.065119
4910.959000,-1.049611
4913.959000,-1.052164
4916.959000,-1.051973
4919.958000,-1.073655
4922.958000,-1.067553
4925.958000,-1.066955
4928.958000,-1.054129
4931.958000,-1.057837
4934.956000,-1.074621
4937.956000,-1.057701
4940.957000,-1.049512
4943.957000,-1.057147
4946.957000,-1.060679
4949.955000,-1.072720
4952.955000,-1.070086
4955.955000,-1.060516
4958.955000,-1.057871
4961.956000,-1.064286
4964.956000,-1.077276
4967.954000,-1.075314
4970.954000,-1.068502
4973.954000,-1.067492
4976.954000,-1.076249
4979.954000,-1.081253
4982.952000,-1.064409
4985.953000,-1.060152
4988.953000,-1.083527
4991.953000,-1.066391
4994.953000,-1.072261
4997.951000,-1.071867
5000.951000,-1.070568
5003.951000,-1.087838
5006.952000,-1.089289
5009.952000,-1.080872
5012.952000,-1.077667
5015.950000,-1.085475
5018.950000,-1.087052
5021.950000,-1.073618
5024.950000,-1.096775
5027.951000,-1.096833
5030.949000,-1.081063
5033.949000,-1.088521
5036.949000,-1.090853
5039.949000,-1.087641
5042.949000,-1.087817
5045.949000,-1.091747
5048.947000,-1.105440
5051.948000,-1.098787
5054.948000,-1.103934
5057.948000,-1.107102
5060.948000,-1.093416
5063.946000,-1.085635
5066.946000,-1.095918
5069.946000,-1.108503
5072.947000,-1.108132
5075.947000,-1.108952
5078.945000,-1.097652
5081.945000,-1.087250
5084.945000,-1.099029
5087.945000,-1.109516
5090.945000,-1.094395
5093.944000,-1.098730
5096.944000,-1.112681
5099.944000,-1.092913
5102.944000,-1.089055
5105.944000,-1.111542
5108.944000,-1.089626
5111.942000,-1.098872
5114.942000,-1.115465
5117.943000,-1.105617
5120.943000,-1.102880
5123.943000,-1.103683
5126.941000,-1.094722
5129.941000,-1.116356
5132.941000,-1.126585
5135.941000,-1.123552
5138.942000,-1.115183
5141.942000,-1.108231
5144.940000,-1.108194
5147.940000,-1.104692
5150.940000,-1.105042
5153.940000,-1.123301
5156.940000,-1.105267
5159.939000,-1.109550
5162.939000,-1.128618
5165.939000,-1.123223
5168.939000,-1.100351
5171.939000,-1.097462
5174.937000,-1.105382
5177.937000,-1.122400
5180.937000,-1.128621
5183.938000,-1.128206
5186.938000,-1.132038
5189.938000,-1.126435
5192.936000,-1.112895
5195.936000,-1.125986
5198.936000,-1.134546
5201.936000,-1.110665
5204.937000,-1.111763
5207.935000,-1.130035
5210.935000,-1.128329
5213.935000,-1.120666
5216.935000,-1.136032
5219.935000,-1.128706
5222.933000,-1.141039
5225.934000,-1.143334
5228.934000,-1.138853
5231.934000,-1.128890
5234.934000,-1.130589
5237.932000,-1.139244
5240.932000,-1.149361
5243.932000,-1.148787
5246.933000,-1.149014
5249.933000,-1.135539
5252.933000,-1.148508
5255.931000,-1.157782
5258.931000,-1.144768
5261.931000,-1.140448
5264.931000,-1.157952
5267.931000,-1.153672
5270.930000,-1.159240
5273.930000,-1.159277
5276.930000,-1.158016
5279.930000,-1.146217
5282.930000,-1.137885
5285.928000,-1.161705
5288.928000,-1.146730
5291.929000,-1.152067
5294.929000,-1.157034
5297.929000,-1.137898
5300.927000,-1.162136
5303.927000,-1.144463
5306.927000,-1.139013
5309.927000,-1.143946
5312.928000,-1.157024
5315.928000,-1.153254
5318.926000,-1.161626
5321.926000,-1.160933
5324.926000,-1.156956
5327.926000,-1.157788
5330.926000,-1.165012
5333.924000,-1.165505
5336.925000,-1.145652
5339.925000,-1.163177
5342.925000,-1.148409
5345.925000,-1.159291
5348.925000,-1.166246
5351.923000,-1.149959
5354.923000,-1.160243
5357.923000,-1.169605
5360.923000,-1.162799
5363.923000,-1.160634
5366.923000,-1.157663
5369.923000,-1.142797
5372.923000,-1.147175
5375.921000,-1.147791
5378.922000,-1.147440
5381.922000,-1.169591
5384.922000,-1.166059
5387.922000,-1.145805
5390.920000,-1.138986
5393.920000,-1.157194
5396.920000,-1.156660
5399.920000,-1.140349
5402.921000,-1.138768
5405.919000,-1.150986
5408.919000,-1.151309
5411.919000,-1.137854
5414.919000,-1.145870
5417.919000,-1.153685
5420.917000,-1.142076
5423.918000,-1.163496
5426.918000,-1.139567
5429.918000,-1.128958
5432.918000,-1.152427
5435.918000,-1.154403
5438.916000,-1.133163
5441.916000,-1.151421
5444.916000,-1.145554
5447.916000,-1.130280
5450.916000,-1.147383
5453.916000,-1.146064
5456.916000,-1.131269
5459.916000,-1.139496
5462.914000,-1.131368
5465.914000,-1.118895
5468.915000,-1.134128
5471.914000,-1.138636
5474.914000,-1.121951
5477.914000,-1.121656
5480.914000,-1.134397
5483.914000,-1.114421
5486.912000,-1.134285
5489.913000,-1.116301
5492.913000,-1.132670
5495.912000,-1.115445
5498.912000,-1.124531
5501.912000,-1.123831
5504.912000,-1.105107
5507.912000,-1.107276
5510.911000,-1.101201
5513.911000,-1.123648
5516.911000,-1.110084
5519.911000,-1.092213
5522.911000,-1.119755
5525.909000,-1.105253
5528.910000,-1.104889
5531.908000,-1.101966
5534.909000,-1.088174
5537.909000,-1.100762
5540.909000,-1.113878
5543.909000,-1.104311
5546.909000,-1.087838
5549.907000,-1.087800
5552.907000,-1.090081
5555.908000,-1.115676
5558.908000,-1.099491
5561.908000,-1.087117
5564.906000,-1.087494
5567.906000,-1.099535
5570.906000,-1.110019
5573.906000,-1.098845
5576.907000,-1.094830
5579.907000,-1.106739
5582.905000,-1.089792
5585.905000,-1.107731
5588.905000,-1.111835
5591.905000,-1.100769
5594.905000,-1.096061
5597.903000,-1.097856
5600.904000,-1.101126
5603.904000,-1.108139
5606.904000,-1.111042
5609.904000,-1.091720
5612.902000,-1.091570
5615.902000,-1.105868
5618.902000,-1.118215
5621.903000,-1.110628
5624.903000,-1.106657
5627.903000,-1.107381
5630.901000,-1.116985
5633.901000,-1.095966
5636.901000,-1.113232
5639.901000,-1.117719
5642.902000,-1.121717
5645.900000,-1.111430
5648.900000,-1.101633
5651.900000,-1.125375
5654.900000,-1.128213
5657.900000,-1.130620
5660.898000,-1.128859
5663.898000,-1.133829
5666.899000,-1.128655
5669.899000,-1.135597
5672.899000,-1.121448
5675.897000,-1.120248
5678.897000,-1.144323
5681.897000,-1.147998
5684.897000,-1.148957
5687.898000,-1.138034
5690.898000,-1.150867
5693.896000,-1.159451
5696.896000,-1.136736
5699.896000,-1.157503
5702.896000,-1.154406
5705.896000,-1.157418
5708.895000,-1.154760
5711.895000,-1.161562
5714.895000,-1.169965
5717.895000,-1.174170
5720.895000,-1.180215
5723.894000,-1.182846
5726.894000,-1.186694
5729.894000,-1.188027
5732.893000,-1.182044
5735.893000,-1.190403
5738.893000,-1.193313
5741.893000,-1.197848
5744.893000,-1.200411
5747.891000,-1.200078
5750.891000,-1.206054
5753.892000,-1.207842
5756.892000,-1.210229
5759.892000,-1.208818
5762.892000,-1.209073
5765.890000,-1.200509
5768.890000,-1.209634
5771.890000,-1.220053
5774.891000,-1.220580
5777.891000,-1.217718
5780.889000,-1.225339
5783.889000,-1.206503
5786.889000,-1.224176
5789.889000,-1.213672
5792.889000,-1.212656
5795.887000,-1.207057
5798.888000,-1.226838
5801.888000,-1.236102
5804.888000,-1.213417
5807.888000,-1.220916
5810.888000,-1.233692
5813.886000,-1.216895
5816.886000,-1.234759
5819.887000,-1.237244
5822.887000,-1.218057
5825.886000,-1.219727
5828.886000,-1.220468
5831.886000,-1.220607
5834.886000,-1.224078
5837.884000,-1.215895
5840.885000,-1.218112
5843.885000,-1.231326
5846.885000,-1.215443
5849.885000,-1.230771
5852.883000,-1.204007
5855.883000,-1.227141
5858.883000,-1.224306
5861.883000,-1.204728
5864.884000,-1.202141
5867.883000,-1.214379
5870.883000,-1.217877
5873.883000,-1.202804
5876.881000,-1.216286
5879.881000,-1.214889
5882.881000,-1.195359
5885.882000,-1.200224
5888.882000,-1.195805
5891.880000,-1.185103
5894.880000,-1.183199
5897.880000,-1.200231
5900.880000,-1.183295
5903.880000,-1.196454
5906.881000,-1.178212
5909.879000,-1.169972
5912.879000,-1.183023
5915.879000,-1.159138
5918.879000,-1.170785
5921.879000,-1.167443
5924.877000,-1.164438
5927.877000,-1.161443
5930.878000,-1.144075
5933.878000,-1.162704
5936.878000,-1.136538
5939.876000,-1.142124
5942.876000,-1.138004
5945.876000,-1.149150
5948.876000,-1.125575
5951.877000,-1.139445
5954.877000,-1.117277
5957.875000,-1.108544
5960.875000,-1.125633
5963.875000,-1.107670
5966.875000,-1.115288
5969.875000,-1.097465
5972.874000,-1.108469
5975.874000,-1.093287
5978.874000,-1.105437
5981.874000,-1.082127
5984.874000,-1.081358
5987.872000,-1.074913
5990.872000,-1.077520
5993.872000,-1.069715
5996.873000,-1.085628
5999.873000,-1.055679
6002.871000,-1.071191
6005.871000,-1.062947
6008.871000,-1.051226
6011.871000,-1.045786
6014.871000,-1.053755
6017.872000,-1.053490
6020.870000,-1.037900
6023.870000,-1.051759
6026.870000,-1.029632
6029.870000,-1.039837
6032.870000,-1.045103
6035.868000,-1.025437
6038.869000,-1.045936
6041.869000,-1.027008
6044.869000,-1.035993
6047.869000,-1.022051
6050.869000,-1.006067
6053.867000,-1.019039
6056.867000,-1.020783
6059.867000,-1.002474
6062.868000,-1.002902
6065.868000,-1.012132
6068.866000,-1.014433
6071.866000,-0.991541
6074.866000,-1.004255
6077.866000,-1.013753
6080.866000,-1.003140
6083.865000,-0.990909
6086.865000,-0.999812
6089.865000,-0.980642
6092.865000,-0.990936
6095.865000,-0.986078
6098.863000,-0.990317
6101.863000,-0.996783
6104.864000,-0.978834
6107.864000,-0.978372
6110.864000,-0.971348
6113.864000,-0.974710
6116.862000,-0.989063
6119.862000,-0.967470
6122.862000,-0.965403
6125.862000,-0.963798
6128.863000,-0.982414
6131.861000,-0.959430
6134.861000,-0.973225
6137.861000,-0.969482
6140.861000,-0.986779
6143.861000,-0.986982
6146.861000,-0.985857
6149.860000,-0.978956
6152.860000,-0.972290
6155.860000,-0.960684
6158.860000,-0.986925
6161.860000,-0.986150
6164.858000,-0.981135
6167.858000,-0.975537
6170.860000,-0.968819
6173.858000,-0.968105
6176.858000,-0.989107
6179.858000,-0.963679
6182.858000,-0.956574
6185.858000,-0.956037
6188.856000,-0.962765
6191.856000,-0.974680
6194.857000,-0.989240
6197.857000,-0.968846
6200.857000,-0.979273
6203.856000,-0.986588
6206.856000,-0.967867
6209.856000,-0.979133
6212.854000,-0.992088
6215.855000,-0.984086
6218.855000,-0.990790
6221.855000,-0.992163
6224.855000,-0.984195
6227.853000,-0.989131
6230.853000,-1.003487
6233.853000,-1.003830
6236.854000,-1.002022
6239.854000,-1.006162
6242.852000,-1.005217
6245.852000,-1.008603
6248.852000,-1.002909
6251.852000,-0.997980
6254.852000,-1.010986
6257.852000,-1.001308
6260.851000,-1.006169
6263.851000,-1.022837
6266.851000,-1.023493
6269.851000,-1.007889
6272.851000,-1.021966
6275.849000,-1.003847
6278.849000,-1.022928
6281.850000,-1.023340
6284.850000,-1.031192
6287.850000,-1.024312
6290.848000,-1.033932
6293.848000,-1.026811
6296.848000,-1.041598
6299.848000,-1.031420
6302.849000,-1.032916
6305.849000,-1.046092
6308.847000,-1.050114
6311.847000,-1.056298
6314.847000,-1.046861
6317.847000,-1.034660
6320.847000,-1.061424
6323.845000,-1.049420
6326.846000,-1.059928
6329.846000,-1.076460
6332.846000,-1.077405
6335.846000,-1.070922
6338.844000,-1.077211
6341.844000,-1.080678
6344.844000,-1.087817
6347.845000,-1.087838
6350.845000,-1.089554
6353.845000,-1.087841
6356.843000,-1.094783
6359.843000,-1.099511
6362.843000,-1.099352
6365.843000,-1.103230
6368.844000,-1.107976
6371.842000,-1.108255
6374.842000,-1.112525
6377.842000,-1.116940
6380.842000,-1.116811
6383.842000,-1.107772
6386.840000,-1.098631
6389.840000,-1.125881
6392.841000,-1.128536
6395.841000,-1.128689
6398.841000,-1.130215
6401.841000,-1.132496
6404.839000,-1.132014
6407.839000,-1.136719
6410.839000,-1.121700
6413.840000,-1.140604
6416.840000,-1.147124
6419.838000,-1.150925
6422.838000,-1.156262
6425.838000,-1.156344
6428.838000,-1.160399
6431.838000,-1.164513
6434.837000,-1.163635
6437.837000,-1.141138
6440.837000,-1.156718
6443.837000,-1.167943
6446.837000,-1.167443
6449.837000,-1.173688
6452.835000,-1.172107
6455.835000,-1.178933
6458.836000,-1.183662
6461.836000,-1.189046
6464.836000,-1.189981
6467.834000,-1.190699
6470.834000,-1.189951
6473.834000,-1.199629
6476.834000,-1.200860
6479.835000,-1.194016
6482.833000,-1.193479
6485.833000,-1.207186
6488.833000,-1.201438
6491.833000,-1.210184
6494.833000,-1.211473
6497.831000,-1.203960
6500.832000,-1.201308
6503.832000,-1.217969
6506.832000,-1.220828
6509.832000,-1.223996
6512.832000,-1.220522
6515.830000,-1.223102
6518.830000,-1.220175
6521.830000,-1.208869
6524.831000,-1.230224
6527.831000,-1.227389
6530.829000,-1.210385
6533.829000,-1.218074
6536.829000,-1.239617
6539.829000,-1.223225
6542.829000,-1.217497
6545.830000,-1.236551
6548.828000,-1.231111
6551.828000,-1.224581
6554.828000,-1.234015
6557.828000,-1.245777
6560.828000,-1.237122
6563.826000,-1.225060
6566.827000,-1.229065
6569.827000,-1.250635
6572.827000,-1.245760
6575.827000,-1.233331
6578.825000,-1.224635
6581.825000,-1.247133
6584.825000,-1.224024
6587.825000,-1.245919
6590.826000,-1.228674
6593.824000,-1.231747
6596.824000,-1.241616
6599.824000,-1.231700
6602.824000,-1.214202
6605.824000,-1.239178
6608.824000,-1.226084
6611.823000,-1.210375
6614.823000,-1.210232
6617.823000,-1.208634
6620.823000,-1.224285
6623.823000,-1.209831
6626.821000,-1.205194
6629.821000,-1.199510
6632.822000,-1.220794
6635.822000,-1.204742
6638.822000,-1.214750
6641.820000,-1.207359
6644.820000,-1.195760
6647.820000,-1.204623
6650.820000,-1.189067
6653.820000,-1.205945
6656.821000,-1.180463
6659.819000,-1.198864
6662.819000,-1.179674
6665.819000,-1.187303
6668.819000,-1.168623
6671.819000,-1.181037
6674.817000,-1.177566
6677.818000,-1.154273
6680.818000,-1.173402
6683.818000,-1.148263
6686.818000,-1.144887
6689.816000,-1.158428
6692.816000,-1.143606
6695.816000,-1.138853
6698.817000,-1.139047
6701.817000,-1.121924
6704.817000,-1.138809
6707.815000,-1.127234
6710.815000,-1.117382
6713.815000,-1.114286
6716.815000,-1.126588
6719.815000,-1.105879
6722.814000,-1.118729
6725.814000,-1.092645
6728.814000,-1.110638
6731.814000,-1.088983
6734.814000,-1.080050
6737.812000,-1.081991
6740.812000,-1.072561
6743.813000,-1.076834
6746.813000,-1.061951
6749.813000,-1.054438
6752.813000,-1.067346
6755.811000,-1.049403
6758.811000,-1.046827
6761.811000,-1.040704
6764.812000,-1.049903
6767.812000,-1.028442
6770.810000,-1.019322
6773.810000,-1.028323
6776.810000,-1.026916
6779.810000,-1.014800
6782.809000,-1.027375
6785.808000,-1.005098
6788.809000,-1.001573
6791.809000,-1.002868
6794.809000,-0.996600
6797.809000,-0.983280
6800.809000,-1.004262
6803.807000,-0.986772
6806.807000,-0.994002
6809.808000,-0.988414
6812.808000,-0.986748
6815.808000,-0.965573
6818.806000,-0.965461
6821.806000,-0.987727
6824.806000,-0.965586
6827.806000,-0.973473
6830.807000,-0.972412
6833.805000,-0.954949
6836.805000,-0.975686
6839.805000,-0.964009
6842.805000,-0.945495
6845.805000,-0.949197
6848.805000,-0.968693
6851.803000,-0.958155
6854.804000,-0.946801
6857.804000,-0.964682
6860.804000,-0.951482
6863.804000,-0.935321
6866.802000,-0.935300
6869.802000,-0.937184
6872.802000,-0.962561
6875.803000,-0.949422
6878.803000,-0.934559
6881.801000,-0.934774
6884.801000,-0.940393
6887.801000,-0.954487
6890.801000,-0.929936
6893.801000,-0.960473
6896.800000,-0.952522
6899.800000,-0.952475
6902.800000,-0.962421
6905.800000,-0.961779
6908.800000,-0.965389
6911.800000,-0.964549
6914.798000,-0.957309
6917.798000,-0.949786
6920.799000,-0.945880
6923.799000,-0.967344
6926.799000,-0.968931
6929.797000,-0.975050
6932.797000,-0.974374
6935.797000,-0.969163
6938.797000,-0.954824
6941.798000,-0.954246
6944.796000,-0.972521
6947.796000,-0.975207
6950.796000,-0.964818
6953.796000,-0.987679
6956.796000,-0.969995
6959.796000,-0.968880
6962.795000,-0.993853
6965.795000,-0.995767
6968.795000,-0.988954
6971.795000,-0.995903
6974.795000,-1.000907
6977.793000,-1.004847
6980.793000,-1.000162
6983.793000,-0.987152
6986.794000,-1.006808
6989.794000,-1.000856
6992.792000,-1.015133
6995.792000,-1.018710
6998.792000,-1.017323
7001.792000,-1.013488
7004.792000,-0.996287
7007.793000,-1.016728
7010.791000,-1.015878
7013.791000,-1.006941
7016.791000,-1.028772
7019.791000,-1.032967
7022.791000,-1.035326
7025.789000,-1.036557
7028.790000,-1.041054
7031.790000,-1.045372
7034.790000,-1.047010
7037.790000,-1.047051
7040.788000,-1.047218
7043.788000,-1.049587
7046.788000,-1.053228
7049.789000,-1.054866
7052.789000,-1.057205
7055.789000,-1.059211
7058.787000,-1.057399
7061.787000,-1.062219
7064.787000,-1.070018
7067.787000,-1.069416
7070.787000,-1.077473
7073.786000,-1.078482
7076.786000,-1.057083
7079.786000,-1.074872
7082.786000,-1.087321
7085.786000,-1.087617
7088.784000,-1.089265
7091.784000,-1.096350
7094.785000,-1.090873
7097.785000,-1.090574
7100.785000,-1.103985
7103.785000,-1.093416
7106.783000,-1.088715
7109.783000,-1.106749
7112.783000,-1.111505
7115.784000,-1.104743
7118.784000,-1.116186
7121.782000,-1.119694
7124.782000,-1.126027
7127.782000,-1.124362
7130.782000,-1.128628
7133.782000,-1.129168
7136.780000,-1.132989
7139.781000,-1.136916
7142.781000,-1.137898
7145.781000,-1.137368
7148.781000,-1.137912
7151.779000,-1.139153
7154.779000,-1.144969
7157.779000,-1.150004
7160.780000,-1.154110
7163.780000,-1.145336
7166.780000,-1.149201
7169.778000,-1.161218
7172.778000,-1.161541
7175.778000,-1.162660
7178.778000,-1.141236
7181.779000,-1.163289
7184.777000,-1.167524
7187.777000,-1.169605
7190.777000,-1.157047
7193.777000,-1.165036
7196.777000,-1.171345
7199.777000,-1.167439
7202.775000,-1.176934
7205.777000,-1.170455
