Time(s),Position(V)
0.354000,1.777952
3.369000,1.777929
6.369000,1.768135
9.367000,1.829352
12.367000,1.778234
15.367000,1.769511
18.367000,1.760234
21.367000,1.747167
24.366000,1.738430
27.366000,1.721158
30.366000,1.702008
33.366000,1.685487
36.366000,1.662809
39.366000,1.641522
42.364000,1.613456
45.365000,1.588334
48.365000,1.559051
51.365000,1.527687
54.365000,1.501131
57.363000,1.465933
60.363000,1.426802
63.363000,1.389088
66.363000,1.348774
69.364000,1.306144
72.362000,1.263974
75.362000,1.220349
78.362000,1.176098
81.362000,1.135906
84.362000,1.086176
87.360000,1.036676
90.361000,0.983651
93.361000,0.930902
96.361000,0.878105
99.361000,0.823540
102.361000,0.768081
105.359000,0.710770
108.359000,0.651799
111.360000,0.591268
114.360000,0.530843
117.360000,0.470934
120.358000,0.406501
123.358000,0.343543
126.358000,0.279242
129.358000,0.214003
132.358000,0.148825
135.359000,0.081801
138.357000,0.014359
141.357000,-0.056166
144.357000,-0.124437
147.357000,-0.191437
150.357000,-0.259736
153.355000,-0.329581
156.356000,-0.402013
159.356000,-0.472855
162.356000,-0.544468
165.356000,-0.618189
168.354000,-0.688775
171.355000,-0.759616
174.355000,-0.828119
177.354000,-0.897169
180.354000,-0.967170
183.354000,-1.036196
186.354000,-1.108207
189.354000,-1.177672
192.352000,-1.252623
195.352000,-1.324066
198.352000,-1.397933
201.353000,-1.468112
204.353000,-1.539194
207.351000,-1.605834
210.351000,-1.669757
213.351000,-1.730965
216.351000,-1.790860
219.351000,-1.849048
222.352000,-1.909606
225.350000,-1.972772
228.350000,-2.040775
231.350000,-2.112724
234.350000,-2.176726
237.350000,-2.241503
240.348000,-2.298858
243.349000,-2.351802
246.349000,-2.400081
249.349000,-2.446351
252.349000,-2.491380
255.347000,-2.541998
258.347000,-2.595703
261.347000,-2.650257
264.347000,-2.708055
267.348000,-2.760175
270.348000,-2.809053
273.346000,-2.852243
276.346000,-2.889583
279.346000,-2.922921
282.346000,-2.952378
285.346000,-2.981542
288.345000,-3.011164
291.345000,-3.043742
294.345000,-3.074901
297.345000,-3.102879
300.345000,-3.136139
303.343000,-3.169865
306.343000,-3.201395
309.344000,-3.231453
312.344000,-3.259029
315.344000,-3.282853
318.342000,-3.303035
321.342000,-3.318612
324.342000,-3.330333
327.342000,-3.341038
330.342000,-3.344900
333.343000,-3.356009
336.341000,-3.357114
339.341000,-3.363155
342.341000,-3.361918
345.341000,-3.361948
348.341000,-3.350995
351.339000,-3.339213
354.340000,-3.345444
357.340000,-3.327729
360.340000,-3.322069
363.340000,-3.311283
366.340000,-3.293558
369.338000,-3.279654
372.338000,-3.258839
375.339000,-3.242998
378.339000,-3.218603
381.339000,-3.194633
384.337000,-3.165116
387.337000,-3.133124
390.337000,-3.099595
393.337000,-3.070730
396.337000,-3.040971
399.336000,-3.012286
402.336000,-2.984163
405.337000,-2.955434
408.335000,-2.924832
411.335000,-2.896490
414.335000,-2.866092
417.335000,-2.831313
420.336000,-2.792681
423.334000,-2.750902
426.334000,-2.706947
429.334000,-2.655530
432.334000,-2.602954
435.334000,-2.551527
438.332000,-2.505709
441.333000,-2.460598
444.333000,-2.418781
447.333000,-2.379538
450.333000,-2.337164
453.333000,-2.293389
456.331000,-2.245708
459.331000,-2.192649
462.331000,-2.138060
465.332000,-2.080491
468.332000,-2.020055
471.331000,-1.962013
474.331000,-1.905731
477.331000,-1.852339
480.330000,-1.800419
483.330000,-1.751681
486.329000,-1.698350
489.329000,-1.649524
492.329000,-1.597855
495.329000,-1.545983
498.329000,-1.486996
501.329000,-1.429541
504.327000,-1.372016
507.328000,-1.310836
510.328000,-1.249832
513.328000,-1.192762
516.328000,-1.137905
519.326000,-1.082361
522.326000,-1.019916
525.326000,-0.968942
528.326000,-0.917756
531.327000,-0.864432
534.327000,-0.810979
537.325000,-0.761418
540.325000,-0.710797
543.325000,-0.659468
546.325000,-0.612338
549.325000,-0.561628
552.324000,-0.508413
555.324000,-0.463584
558.324000,-0.415006
561.324000,-0.367815
564.324000,-0.322922
567.322000,-0.282920
570.322000,-0.236908
573.323000,-0.191512
576.323000,-0.152092
579.323000,-0.115041
582.321000,-0.072776
585.321000,-0.032013
588.321000,0.002788
591.321000,0.038169
594.321000,0.075597
597.322000,0.109816
600.320000,0.147785
603.320000,0.180233
606.319000,0.208363
609.319000,0.239502
612.319000,0.269404
615.319000,0.299000
618.320000,0.325808
621.320000,0.350695
624.318000,0.367179
627.318000,0.397394
630.318000,0.417009
633.318000,0.436736
636.318000,0.454936
639.317000,0.456442
642.317000,0.482968
645.317000,0.495339
648.317000,0.507057
651.317000,0.522779
654.315000,0.522745
657.315000,0.538101
660.315000,0.543285
663.316000,0.547273
666.316000,0.553616
669.314000,0.548078
672.314000,0.557522
675.314000,0.554054
678.314000,0.552263
681.313000,0.544760
684.314000,0.546147
687.314000,0.540698
690.314000,0.526097
693.312000,0.516609
696.312000,0.508777
699.312000,0.498970
702.312000,0.486286
705.313000,0.471862
708.313000,0.454654
711.311000,0.436348
714.311000,0.419371
717.311000,0.401123
720.311000,0.380090
723.311000,0.360064
726.310000,0.342928
729.311000,0.316837
732.311000,0.295621
735.309000,0.268711
738.309000,0.244119
741.309000,0.217470
744.309000,0.189625
747.309000,0.163841
750.308000,0.132970
753.308000,0.103014
756.308000,0.071620
759.308000,0.039379
762.308000,0.006306
765.306000,-0.027369
768.306000,-0.061653
771.307000,-0.097558
774.307000,-0.134404
777.307000,-0.167321
780.307000,-0.204107
783.305000,-0.242942
786.305000,-0.282692
789.305000,-0.320593
792.305000,-0.361604
795.306000,-0.403448
798.304000,-0.444592
801.304000,-0.484484
804.304000,-0.526784
807.304000,-0.569026
810.304000,-0.612396
813.304000,-0.654566
816.303000,-0.697828
819.303000,-0.740035
822.303000,-0.782933
825.303000,-0.822153
828.303000,-0.866087
831.301000,-0.908639
834.301000,-0.950907
837.302000,-0.993982
840.302000,-1.037808
843.302000,-1.079003
846.300000,-1.120891
849.300000,-1.163187
852.300000,-1.207220
855.300000,-1.251005
858.300000,-1.295110
861.299000,-1.339962
864.299000,-1.383703
867.299000,-1.427556
870.299000,-1.465647
873.299000,-1.509303
876.299000,-1.549875
879.297000,-1.589799
882.298000,-1.626091
885.298000,-1.661844
888.298000,-1.697167
891.298000,-1.729132
894.296000,-1.764534
897.296000,-1.794677
900.296000,-1.827149
903.297000,-1.857744
906.297000,-1.890226
909.295000,-1.920352
912.295000,-1.952623
915.295000,-1.986458
918.295000,-2.017597
921.295000,-2.049681
924.295000,-2.082880
927.294000,-2.112065
930.294000,-2.141674
933.294000,-2.172167
936.294000,-2.198228
939.294000,-2.223431
942.292000,-2.249916
945.292000,-2.270181
948.293000,-2.290866
951.293000,-2.310515
954.293000,-2.327978
957.291000,-2.345873
960.291000,-2.358125
963.291000,-2.372450
966.291000,-2.385902
969.292000,-2.395206
972.292000,-2.404330
975.290000,-2.416490
978.290000,-2.426359
981.290000,-2.431403
984.290000,-2.436934
987.290000,-2.434901
990.288000,-2.447391
993.289000,-2.445542
996.289000,-2.449526
999.289000,-2.437672
1002.289000,-2.435435
1005.287000,-2.436683
1008.287000,-2.432807
1011.287000,-2.442190
1014.288000,-2.438080
1017.288000,-2.424958
1020.286000,-2.426393
1023.286000,-2.411387
1026.286000,-2.422653
1029.286000,-2.397191
1032.286000,-2.390790
1035.287000,-2.379976
1038.285000,-2.363717
1041.285000,-2.355925
1044.285000,-2.341029
1047.285000,-2.327315
1050.285000,-2.315060
1053.283000,-2.296992
1056.284000,-2.277870
1059.285000,-2.260958
1062.283000,-2.238936
1065.283000,-2.220072
1068.283000,-2.193441
1071.283000,-2.170617
1074.283000,-2.143139
1077.281000,-2.118276
1080.282000,-2.089690
1083.282000,-2.060441
1086.282000,-2.030039
1089.282000,-2.000212
1092.280000,-1.969325
1095.280000,-1.938944
1098.280000,-1.908655
1101.281000,-1.880412
1104.281000,-1.859498
1107.281000,-1.818151
1110.279000,-1.789541
1113.279000,-1.762661
1116.279000,-1.730380
1119.279000,-1.700764
1122.279000,-1.670216
1125.278000,-1.639417
1128.278000,-1.609740
1131.278000,-1.573192
1134.278000,-1.540578
1137.278000,-1.502905
1140.276000,-1.467524
1143.276000,-1.430146
1146.277000,-1.394139
1149.277000,-1.356630
1152.277000,-1.316615
1155.275000,-1.278065
1158.275000,-1.239906
1161.275000,-1.205496
1164.275000,-1.168758
1167.276000,-1.133900
1170.276000,-1.096394
1173.274000,-1.058470
1176.274000,-1.022874
1179.274000,-0.987785
1182.274000,-0.954892
1185.274000,-0.918147
1188.272000,-0.884669
1191.273000,-0.849094
1194.273000,-0.816652
1197.273000,-0.782372
1200.273000,-0.750587
1203.273000,-0.716926
1206.271000,-0.684393
1209.271000,-0.649447
1212.272000,-0.619756
1215.272000,-0.587114
1218.272000,-0.552780
1221.270000,-0.520172
1224.270000,-0.492939
1227.270000,-0.460929
1230.270000,-0.432017
1233.271000,-0.401969
1236.269000,-0.376154
1239.269000,-0.351970
1242.269000,-0.321613
1245.269000,-0.298697
1248.269000,-0.274401
1251.267000,-0.249004
1254.267000,-0.228501
1257.268000,-0.199841
1260.268000,-0.180685
1263.268000,-0.158303
1266.268000,-0.142526
1269.266000,-0.123475
1272.266000,-0.101617
1275.266000,-0.082359
1278.267000,-0.065735
1281.267000,-0.054626
1284.265000,-0.030789
1287.265000,-0.017776
1290.265000,-0.000639
1293.265000,0.012452
1296.265000,0.004885
1299.264000,0.018051
1302.264000,0.039294
1305.264000,0.047963
1308.264000,0.046138
1311.264000,0.066409
1314.264000,0.062928
1317.262000,0.078001
1320.262000,0.079000
1323.263000,0.083848
1326.263000,0.083086
1329.263000,0.092850
1332.261000,0.086037
1335.261000,0.093856
1338.261000,0.093880
1341.261000,0.080642
1344.262000,0.079938
1347.260000,0.067075
1350.260000,0.059501
1353.260000,0.054402
1356.260000,0.046301
1359.260000,0.034967
1362.260000,0.025153
1365.259000,0.016073
1368.259000,0.009219
1371.259000,-0.008169
1374.259000,-0.020393
1377.259000,-0.034171
1380.257000,-0.048157
1383.257000,-0.060201
1386.258000,-0.075713
1389.258000,-0.094719
1392.258000,-0.110187
1395.256000,-0.126919
1398.256000,-0.146442
1401.256000,-0.160081
1404.256000,-0.179406
1407.256000,-0.198239
1410.257000,-0.220537
1413.255000,-0.240172
1416.255000,-0.262972
1419.255000,-0.284399
1422.255000,-0.307182
1425.255000,-0.328701
1428.253000,-0.354064
1431.254000,-0.381494
1434.254000,-0.403944
1437.254000,-0.431405
1440.254000,-0.456775
1443.252000,-0.480796
1446.252000,-0.508695
1449.252000,-0.537387
1452.253000,-0.562471
1455.253000,-0.592421
1458.251000,-0.621602
1461.251000,-0.648566
1464.251000,-0.675752
1467.251000,-0.705198
1470.251000,-0.732750
1473.251000,-0.760221
1476.250000,-0.787726
1479.250000,-0.812923
1482.250000,-0.843134
1485.250000,-0.872421
1488.249000,-0.900871
1491.249000,-0.928539
1494.249000,-0.957122
1497.250000,-0.986745
1500.248000,-1.014352
1503.248000,-1.041258
1506.248000,-1.069664
1509.248000,-1.099253
1512.248000,-1.127581
1515.246000,-1.154552
1518.247000,-1.181493
1521.247000,-1.211449
1524.247000,-1.240990
1527.246000,-1.268217
1530.246000,-1.296888
1533.246000,-1.324688
1536.246000,-1.353975
1539.244000,-1.380834
1542.245000,-1.408312
1545.245000,-1.435293
1548.245000,-1.457046
1551.245000,-1.483358
1554.245000,-1.508320
1557.243000,-1.532412
1560.243000,-1.557082
1563.244000,-1.579614
1566.244000,-1.601160
1569.244000,-1.620411
1572.242000,-1.641675
1575.242000,-1.659546
1578.242000,-1.679392
1581.242000,-1.695563
1584.243000,-1.711289
1587.241000,-1.727229
1590.241000,-1.742968
1593.241000,-1.759078
1596.241000,-1.774502
1599.241000,-1.783065
1602.239000,-1.796190
1605.239000,-1.809822
1608.240000,-1.821367
1611.240000,-1.831072
1614.240000,-1.841590
1617.240000,-1.851316
1620.238000,-1.861694
1623.238000,-1.864621
1626.238000,-1.871036
1629.239000,-1.882404
1632.239000,-1.884695
1635.237000,-1.890529
1638.237000,-1.896998
1641.237000,-1.896631
1644.237000,-1.903739
1647.237000,-1.899541
1650.236000,-1.895234
1653.236000,-1.896192
1656.236000,-1.893500
1659.236000,-1.894129
1662.236000,-1.884872
1665.236000,-1.887653
1668.234000,-1.883720
1671.235000,-1.890379
1674.234000,-1.879905
1677.234000,-1.871230
1680.234000,-1.859356
1683.234000,-1.857928
1686.234000,-1.844004
1689.232000,-1.834876
1692.232000,-1.829726
1695.233000,-1.818565
1698.232000,-1.807453
1701.232000,-1.797659
1704.232000,-1.789653
1707.232000,-1.779825
1710.232000,-1.766129
1713.232000,-1.756015
1716.231000,-1.744733
1719.231000,-1.729041
1722.231000,-1.716313
1725.231000,-1.700053
1728.231000,-1.688370
1731.229000,-1.672297
1734.229000,-1.657190
1737.229000,-1.643109
1740.230000,-1.628583
1743.230000,-1.611487
1746.228000,-1.599752
1749.228000,-1.575089
1752.228000,-1.559292
1755.228000,-1.538834
1758.228000,-1.518257
1761.229000,-1.498540
1764.227000,-1.478806
1767.227000,-1.457240
1770.227000,-1.435759
1773.227000,-1.413170
1776.227000,-1.391597
1779.225000,-1.370064
1782.226000,-1.347217
1785.226000,-1.322220
1788.226000,-1.298781
1791.226000,-1.276555
1794.224000,-1.253327
1797.225000,-1.231598
1800.225000,-1.207176
1803.223000,-1.183903
1806.224000,-1.162480
1809.224000,-1.136559
1812.224000,-1.111936
1815.224000,-1.086597
1818.222000,-1.067189
1821.222000,-1.048819
1824.222000,-1.019590
1827.223000,-1.001743
1830.223000,-0.977869
1833.221000,-0.958206
1836.221000,-0.934906
1839.221000,-0.916423
1842.221000,-0.894959
1845.221000,-0.874668
1848.222000,-0.853635
1851.220000,-0.835282
1854.220000,-0.811625
1857.220000,-0.795338
1860.220000,-0.772058
1863.220000,-0.757332
1866.218000,-0.733774
1869.218000,-0.716569
1872.219000,-0.700925
1875.219000,-0.678199
1878.219000,-0.663225
1881.219000,-0.641937
1884.217000,-0.627986
1887.217000,-0.604730
1890.217000,-0.590989
1893.218000,-0.570647
1896.218000,-0.552378
1899.216000,-0.541361
1902.216000,-0.521484
1905.216000,-0.504307
1908.216000,-0.511816
1911.216000,-0.474983
1914.215000,-0.471461
1917.215000,-0.448569
1920.215000,-0.435077
1923.215000,-0.423801
1926.215000,-0.409710
1929.215000,-0.396989
1932.213000,-0.393114
1935.213000,-0.374872
1938.214000,-0.381311
1941.214000,-0.353466
1944.214000,-0.345276
1947.212000,-0.336839
1950.212000,-0.342781
1953.212000,-0.326739
1956.212000,-0.318550
1959.213000,-0.308933
1962.211000,-0.305771
1965.211000,-0.319080
1968.211000,-0.295117
1971.211000,-0.294740
1974.211000,-0.308147
1977.209000,-0.284361
1980.210000,-0.290416
1983.210000,-0.280139
1986.209000,-0.302317
1989.209000,-0.290831
1992.209000,-0.271953
1995.209000,-0.276145
1998.209000,-0.300512
2001.207000,-0.296348
2004.208000,-0.294465
2007.208000,-0.301750
2010.208000,-0.297881
2013.208000,-0.302559
2016.208000,-0.304598
2019.206000,-0.304806
2022.206000,-0.308385
2025.207000,-0.293673
2028.207000,-0.315946
2031.207000,-0.323741
2034.205000,-0.332545
2037.205000,-0.327752
2040.205000,-0.343774
2043.205000,-0.348040
2046.206000,-0.352582
2049.204000,-0.363117
2052.204000,-0.373604
2055.204000,-0.381923
2058.204000,-0.381001
2061.204000,-0.394460
2064.202000,-0.404998
2067.202000,-0.414187
2070.203000,-0.427866
2073.203000,-0.436722
2076.203000,-0.448402
2079.203000,-0.458954
2082.201000,-0.469013
2085.201000,-0.481183
2088.201000,-0.492861
2091.202000,-0.506486
2094.202000,-0.518193
2097.200000,-0.532971
2100.200000,-0.544866
2103.200000,-0.557032
2106.200000,-0.571259
2109.200000,-0.586628
2112.201000,-0.601324
2115.199000,-0.615843
2118.199000,-0.633133
2121.199000,-0.643749
2124.199000,-0.657724
2127.199000,-0.674208
2130.197000,-0.688962
2133.197000,-0.703535
2136.198000,-0.718663
2139.198000,-0.731221
2142.198000,-0.749272
2145.196000,-0.763468
2148.196000,-0.780129
2151.196000,-0.792374
2154.196000,-0.802082
2157.197000,-0.820130
2160.195000,-0.834370
2163.195000,-0.845300
2166.195000,-0.866264
2169.195000,-0.879430
2172.195000,-0.894599
2175.195000,-0.909196
2178.194000,-0.923039
2181.194000,-0.938401
2184.194000,-0.950561
2187.193000,-0.965545
2190.193000,-0.980598
2193.193000,-0.994516
2196.193000,-1.005533
2199.193000,-1.022867
2202.192000,-1.034646
2205.192000,-1.047452
2208.192000,-1.057790
2211.192000,-1.073193
2214.192000,-1.086417
2217.190000,-1.099216
2220.190000,-1.110896
2223.191000,-1.124419
2226.191000,-1.132177
2229.191000,-1.143579
2232.189000,-1.155844
2235.189000,-1.161385
2238.189000,-1.175472
2241.189000,-1.188652
2244.190000,-1.196284
2247.190000,-1.207560
2250.188000,-1.215035
2253.188000,-1.225682
2256.188000,-1.234939
2259.188000,-1.243900
2262.188000,-1.251576
2265.186000,-1.256250
2268.187000,-1.267380
2271.187000,-1.276049
2274.187000,-1.282083
2277.187000,-1.289851
2280.185000,-1.293570
2283.185000,-1.298846
2286.185000,-1.305502
2289.186000,-1.300607
2292.186000,-1.294807
2295.186000,-1.317719
2298.184000,-1.324855
2301.184000,-1.322581
2304.184000,-1.329499
2307.184000,-1.334601
2310.185000,-1.334431
2313.183000,-1.339938
2316.183000,-1.331562
2319.183000,-1.336923
2322.183000,-1.346686
2325.183000,-1.349097
2328.181000,-1.351792
2331.181000,-1.329822
2334.182000,-1.343011
2337.182000,-1.353006
2340.182000,-1.353047
2343.182000,-1.348141
2346.180000,-1.325644
2349.180000,-1.332439
2352.180000,-1.341573
2355.181000,-1.320255
2358.181000,-1.336117
2361.179000,-1.317855
2364.179000,-1.308051
2367.179000,-1.319089
2370.179000,-1.305689
2373.179000,-1.308585
2376.178000,-1.292713
2379.178000,-1.291768
2382.178000,-1.290303
2385.178000,-1.284684
2388.178000,-1.284510
2391.176000,-1.271626
2394.176000,-1.269107
2397.176000,-1.283888
2400.177000,-1.263794
2403.177000,-1.250288
2406.177000,-1.252674
2409.175000,-1.239219
2412.175000,-1.227957
2415.175000,-1.226026
2418.175000,-1.238237
2421.176000,-1.217401
2424.174000,-1.204946
2427.174000,-1.207978
2430.174000,-1.191824
2433.174000,-1.184855
2436.174000,-1.192133
2439.174000,-1.170016
2442.173000,-1.163656
2445.173000,-1.170424
2448.173000,-1.143684
2451.173000,-1.130644
2454.173000,-1.128492
2457.171000,-1.124406
2460.171000,-1.126602
2463.171000,-1.105365
2466.172000,-1.093919
2469.172000,-1.092498
2472.170000,-1.078323
2475.170000,-1.063858
2478.170000,-1.055703
2481.169000,-1.049886
2484.169000,-1.038940
2487.170000,-1.033368
2490.170000,-1.021701
2493.170000,-1.010548
2496.168000,-1.013559
2499.168000,-0.994427
2502.168000,-0.992071
2505.168000,-0.985769
2508.169000,-0.984790
2511.167000,-0.956506
2514.167000,-0.954820
2517.167000,-0.944010
2520.167000,-0.942399
2523.167000,-0.936018
2526.167000,-0.918405
2529.165000,-0.905280
2532.166000,-0.915101
2535.166000,-0.890309
2538.166000,-0.883839
2541.166000,-0.876945
2544.164000,-0.868379
2547.164000,-0.863195
2550.164000,-0.868742
2553.165000,-0.838943
2556.165000,-0.841091
2559.163000,-0.839463
2562.163000,-0.826871
2565.164000,-0.816765
2568.162000,-0.803592
2571.162000,-0.803238
2574.163000,-0.790762
2577.163000,-0.794437
2580.163000,-0.798404
2583.161000,-0.778405
2586.161000,-0.785432
2589.161000,-0.760776
2592.161000,-0.759786
2595.161000,-0.747990
2598.162000,-0.747779
2601.160000,-0.738818
2604.160000,-0.735348
2607.160000,-0.754041
2610.160000,-0.730813
2613.160000,-0.738258
2616.158000,-0.723099
2619.159000,-0.712323
2622.159000,-0.707856
2625.159000,-0.723052
2628.159000,-0.706456
2631.157000,-0.692688
2634.157000,-0.701373
2637.157000,-0.688894
2640.158000,-0.684196
2643.158000,-0.683540
2646.158000,-0.703865
2649.156000,-0.678838
2652.156000,-0.697709
2655.156000,-0.675704
2658.156000,-0.691396
2661.156000,-0.688544
2664.155000,-0.670309
2667.155000,-0.684352
2670.155000,-0.688381
2673.155000,-0.669490
2676.155000,-0.684097
2679.153000,-0.679960
2682.153000,-0.680032
2685.154000,-0.687215
2688.154000,-0.681915
2691.154000,-0.688051
2694.154000,-0.695768
2697.152000,-0.686609
2700.152000,-0.680521
2703.152000,-0.681123
2706.153000,-0.699918
2709.153000,-0.705337
2712.151000,-0.710447
2715.151000,-0.707639
2718.151000,-0.700275
2721.151000,-0.714142
2724.151000,-0.714043
2727.149000,-0.717143
2730.150000,-0.721349
2733.150000,-0.725496
2736.150000,-0.730306
2739.150000,-0.731394
2742.148000,-0.736014
2745.148000,-0.739920
2748.148000,-0.739859
2751.149000,-0.745954
2754.149000,-0.747032
2757.149000,-0.751753
2760.147000,-0.760327
2763.147000,-0.761476
2766.147000,-0.762451
2769.147000,-0.765491
2772.148000,-0.775179
2775.146000,-0.780339
2778.146000,-0.781842
2781.146000,-0.783188
2784.146000,-0.790011
2787.146000,-0.792397
2790.146000,-0.795606
2793.145000,-0.798911
2796.145000,-0.805764
2799.145000,-0.812628
2802.145000,-0.814351
2805.145000,-0.816819
2808.143000,-0.824383
2811.143000,-0.829468
2814.143000,-0.836220
2817.144000,-0.842444
2820.144000,-0.841057
2823.142000,-0.817934
2826.142000,-0.845980
2829.142000,-0.859635
2832.142000,-0.857160
2835.142000,-0.872509
2838.141000,-0.873138
2841.141000,-0.879634
2844.141000,-0.883629
2847.141000,-0.889343
2850.141000,-0.888792
2853.141000,-0.896156
2856.139000,-0.900034
2859.139000,-0.909788
2862.140000,-0.914343
2865.140000,-0.919496
2868.140000,-0.923844
2871.138000,-0.924667
2874.138000,-0.928733
2877.138000,-0.933519
2880.138000,-0.943136
2883.139000,-0.944812
2886.137000,-0.934267
2889.137000,-0.947287
2892.137000,-0.955616
2895.137000,-0.954490
2898.137000,-0.938618
2901.137000,-0.965369
2904.136000,-0.972423
2907.136000,-0.978497
2910.136000,-0.983865
2913.136000,-0.985891
2916.136000,-0.989128
2919.134000,-0.991279
2922.134000,-0.984497
2925.134000,-0.995841
2928.135000,-0.996348
2931.134000,-1.006781
2934.134000,-1.007726
2937.134000,-1.006397
2940.133000,-0.996566
2943.133000,-1.024258
2946.133000,-1.020545
2949.134000,-1.004119
2952.132000,-1.026505
2955.132000,-1.028850
2958.132000,-1.017102
2961.132000,-1.028612
2964.132000,-1.040116
2967.130000,-1.043097
2970.131000,-1.047041
2973.131000,-1.047116
2976.131000,-1.046225
2979.131000,-1.049937
2982.129000,-1.049454
2985.129000,-1.052918
2988.129000,-1.049087
2991.129000,-1.057644
2994.130000,-1.058449
2997.130000,-1.055587
3000.128000,-1.062923
3003.128000,-1.058205
3006.128000,-1.061638
3009.127000,-1.057334
3012.127000,-1.055505
3015.128000,-1.057137
3018.128000,-1.062505
3021.128000,-1.066921
3024.126000,-1.066652
3027.126000,-1.059547
3030.126000,-1.047782
3033.126000,-1.056603
3036.127000,-1.048285
3039.125000,-1.050916
3042.125000,-1.044012
3045.125000,-1.034691
3048.125000,-1.055165
3051.125000,-1.046140
3054.123000,-1.031254
3057.124000,-1.050862
3060.124000,-1.035551
3063.123000,-1.040847
3066.124000,-1.046813
3069.124000,-1.026579
3072.122000,-1.035557
3075.122000,-1.024125
3078.122000,-1.015212
3081.123000,-1.029741
3084.123000,-1.018703
3087.121000,-1.023064
3090.121000,-1.002919
3093.121000,-1.020562
3096.121000,-0.996035
3099.121000,-1.009633
3102.120000,-1.002759
3105.120000,-0.985225
3108.120000,-0.979211
3111.120000,-0.990759
3114.120000,-0.986442
3117.118000,-0.986241
3120.118000,-0.970131
3123.119000,-0.968452
3126.119000,-0.979997
3129.119000,-0.960208
3132.119000,-0.971396
3135.117000,-0.946145
3138.117000,-0.962853
3141.117000,-0.941504
3144.117000,-0.935865
3147.118000,-0.944622
3150.116000,-0.925343
3153.116000,-0.942572
3156.116000,-0.919167
3159.116000,-0.913513
3162.116000,-0.927675
3165.116000,-0.908965
3168.115000,-0.911134
3171.115000,-0.891896
3174.115000,-0.891791
3177.115000,-0.908152
3180.115000,-0.876133
3183.114000,-0.885998
3186.114000,-0.889517
3189.113000,-0.865224
3192.113000,-0.862181
3195.113000,-0.879757
3198.113000,-0.851766
3201.113000,-0.850610
3204.113000,-0.843994
3207.111000,-0.857660
3210.111000,-0.842662
3213.112000,-0.844596
3216.112000,-0.822238
3219.112000,-0.818335
3222.110000,-0.822455
3225.110000,-0.812284
3228.110000,-0.819739
3231.110000,-0.806733
3234.111000,-0.813127
3237.109000,-0.802963
3240.109000,-0.792306
3243.109000,-0.790674
3246.109000,-0.806627
3249.109000,-0.787149
3252.109000,-0.784871
3255.108000,-0.777392
3258.108000,-0.797571
3261.108000,-0.770678
3264.108000,-0.785653
3267.108000,-0.778813
3270.106000,-0.761374
3273.106000,-0.758987
3276.106000,-0.777436
3279.107000,-0.755122
3282.107000,-0.757702
3285.107000,-0.751900
3288.105000,-0.764841
3291.105000,-0.768659
3294.105000,-0.744856
3297.105000,-0.765664
3300.106000,-0.748255
3303.104000,-0.752161
3306.104000,-0.761823
3309.104000,-0.743778
3312.104000,-0.746267
3315.104000,-0.760585
3318.102000,-0.745770
3321.103000,-0.731846
3324.103000,-0.758178
3327.103000,-0.758301
3330.103000,-0.755741
3333.101000,-0.737428
3336.102000,-0.743187
3339.102000,-0.754602
3342.100000,-0.730867
3345.101000,-0.753616
3348.101000,-0.754283
3351.101000,-0.749795
3354.101000,-0.746858
3357.099000,-0.743853
3360.099000,-0.751189
3363.099000,-0.752131
3366.100000,-0.760922
3369.100000,-0.760813
3372.100000,-0.759443
3375.098000,-0.756808
3378.098000,-0.761551
3381.098000,-0.749829
3384.098000,-0.744309
3387.099000,-0.761619
3390.097000,-0.763033
3393.097000,-0.761761
3396.097000,-0.761211
3399.097000,-0.767768
3402.096000,-0.774656
3405.096000,-0.776518
3408.096000,-0.778273
3411.097000,-0.778371
3414.095000,-0.772799
3417.095000,-0.757825
3420.095000,-0.780261
3423.095000,-0.773313
3426.095000,-0.780472
3429.093000,-0.792387
3432.094000,-0.795470
3435.094000,-0.785170
3438.093000,-0.786180
3441.093000,-0.799485
3444.093000,-0.801865
3447.093000,-0.804040
3450.093000,-0.807352
3453.092000,-0.811407
3456.092000,-0.813491
3459.092000,-0.819066
3462.092000,-0.827259
3465.092000,-0.832671
3468.090000,-0.829547
3471.090000,-0.837841
3474.090000,-0.843059
3477.091000,-0.832110
3480.091000,-0.835635
3483.091000,-0.843022
3486.089000,-0.855168
3489.089000,-0.863042
3492.089000,-0.864116
3495.089000,-0.867294
3498.090000,-0.872285
3501.088000,-0.875976
3504.088000,-0.877408
3507.088000,-0.883170
3510.088000,-0.886086
3513.088000,-0.890696
3516.088000,-0.893548
3519.087000,-0.897974
3522.087000,-0.904148
3525.087000,-0.910168
3528.087000,-0.911844
3531.087000,-0.912041
3534.085000,-0.923365
3537.085000,-0.924565
3540.085000,-0.926224
3543.086000,-0.935063
3546.086000,-0.934682
3549.084000,-0.941824
3552.084000,-0.944064
3555.084000,-0.946797
3558.084000,-0.955007
3561.084000,-0.956336
3564.083000,-0.957679
3567.083000,-0.964713
3570.083000,-0.966705
3573.083000,-0.963322
3576.083000,-0.976441
3579.083000,-0.975214
3582.081000,-0.983699
3585.082000,-0.986133
3588.082000,-0.987730
3591.082000,-0.968962
3594.082000,-0.990229
3597.080000,-0.996511
3600.080000,-1.001964
3603.080000,-1.005968
3606.080000,-1.004456
3609.081000,-1.006856
3612.079000,-1.012033
3615.079000,-1.008994
3618.079000,-1.016884
3621.079000,-1.013169
3624.079000,-1.011139
3627.079000,-1.004928
3630.078000,-1.021375
3633.078000,-1.021847
3636.078000,-1.007910
3639.078000,-1.007097
3642.078000,-1.028762
3645.076000,-1.031070
3648.076000,-1.026681
3651.077000,-1.037682
3654.077000,-1.022544
3657.077000,-1.010218
3660.075000,-1.031471
3663.075000,-1.036836
3666.075000,-1.020107
3669.075000,-1.015341
3672.075000,-1.021178
3675.076000,-1.035721
3678.074000,-1.038464
3681.074000,-1.021973
3684.074000,-1.039599
3687.074000,-1.023533
3690.074000,-1.042397
3693.072000,-1.037203
3696.073000,-1.024801
3699.073000,-1.035415
3702.073000,-1.042604
3705.073000,-1.022510
3708.071000,-1.036740
3711.071000,-1.036632
3714.071000,-1.015834
3717.072000,-1.007185
3720.072000,-1.033164
3723.072000,-1.012169
3726.070000,-1.032012
3729.070000,-1.008352
3732.070000,-1.015728
3735.069000,-1.007549
3738.069000,-1.028269
3741.070000,-1.011353
3744.070000,-1.013804
3747.070000,-1.009388
3750.068000,-1.014929
3753.068000,-0.998109
3756.068000,-0.999574
3759.068000,-1.008012
3762.069000,-1.007862
3765.067000,-0.992054
3768.067000,-1.004371
3771.067000,-0.990317
3774.067000,-0.992296
3777.067000,-1.000608
3780.065000,-0.976954
3783.066000,-0.973653
3786.066000,-0.991062
3789.066000,-0.974697
3792.066000,-0.969176
3795.064000,-0.968272
3798.064000,-0.972950
3801.064000,-0.970403
3804.063000,-0.952240
3807.064000,-0.963550
3810.064000,-0.969710
3813.064000,-0.946882
3816.064000,-0.948222
3819.062000,-0.935178
3822.062000,-0.952716
3825.062000,-0.934185
3828.063000,-0.943932
3831.063000,-0.924426
3834.063000,-0.926727
3837.061000,-0.913575
3840.061000,-0.933172
3843.061000,-0.907333
3846.061000,-0.921383
3849.062000,-0.907459
3852.060000,-0.917603
3855.060000,-0.889330
3858.060000,-0.905011
3861.060000,-0.886661
3864.060000,-0.889853
3867.060000,-0.895455
3870.058000,-0.871867
3873.059000,-0.884601
3876.059000,-0.878761
3879.058000,-0.875341
3882.058000,-0.870643
3885.058000,-0.858588
3888.058000,-0.872468
3891.056000,-0.847958
3894.057000,-0.844052
3897.057000,-0.833701
3900.057000,-0.846799
3903.057000,-0.844412
3906.057000,-0.830563
3909.055000,-0.827068
3912.055000,-0.817727
3915.056000,-0.827636
3918.056000,-0.837913
3921.056000,-0.808762
3924.054000,-0.810612
3927.054000,-0.813671
3930.054000,-0.822717
3933.054000,-0.797731
3936.054000,-0.800529
3939.053000,-0.807987
3942.053000,-0.788097
3945.053000,-0.792887
3948.053000,-0.782243
3951.053000,-0.777973
3954.053000,-0.793604
3957.051000,-0.776957
3960.053000,-0.764141
3963.051000,-0.790167
3966.051000,-0.779595
3969.051000,-0.761224
3972.051000,-0.761486
3975.051000,-0.759970
3978.051000,-0.778354
3981.050000,-0.755275
3984.050000,-0.762268
3987.050000,-0.776165
3990.050000,-0.755112
3993.050000,-0.758613
3996.048000,-0.768812
3999.048000,-0.746726
4002.048000,-0.747123
4005.049000,-0.747422
4008.049000,-0.733362
4011.047000,-0.743095
4014.047000,-0.761299
4017.047000,-0.757872
4020.047000,-0.731850
4023.047000,-0.733444
4026.048000,-0.736772
4029.046000,-0.725989
4032.046000,-0.733376
4035.046000,-0.745835
4038.046000,-0.726227
4041.046000,-0.746800
4044.044000,-0.744288
4047.045000,-0.734943
4050.045000,-0.725900
4053.045000,-0.739940
4056.045000,-0.734083
4059.043000,-0.730146
4062.043000,-0.743363
4065.043000,-0.747939
4068.043000,-0.743714
4071.044000,-0.723269
4074.044000,-0.728080
4077.042000,-0.753120
4080.042000,-0.749047
4083.042000,-0.750224
4086.042000,-0.755884
4089.042000,-0.755489
4092.041000,-0.760500
4095.041000,-0.751573
4098.042000,-0.758508
4101.040000,-0.761547
4104.040000,-0.762686
4107.040000,-0.760629
4110.040000,-0.768907
4113.041000,-0.761401
4116.039000,-0.762587
4119.039000,-0.778939
4122.039000,-0.779949
4125.039000,-0.773058
4128.039000,-0.778062
4131.037000,-0.766436
4134.037000,-0.777277
4137.038000,-0.789943
4140.038000,-0.793169
4143.038000,-0.789583
4146.036000,-0.780982
4149.036000,-0.802235
4152.036000,-0.802820
4155.036000,-0.809837
4158.037000,-0.812464
4161.037000,-0.814966
4164.036000,-0.818961
4167.036000,-0.825206
4170.034000,-0.824634
4173.034000,-0.832851
4176.034000,-0.834925
4179.035000,-0.838817
4182.035000,-0.843287
4185.035000,-0.837243
4188.033000,-0.844365
4191.033000,-0.855474
4194.033000,-0.862103
4197.033000,-0.863687
4200.033000,-0.867298
4203.032000,-0.865775
4206.032000,-0.879845
4209.032000,-0.883833
4212.032000,-0.891709
4215.032000,-0.887871
4218.030000,-0.901078
4221.030000,-0.905766
4224.031000,-0.914193
4227.031000,-0.915682
4230.031000,-0.924330
4233.031000,-0.922400
4236.029000,-0.932081
4239.029000,-0.939288
4242.029000,-0.936885
4245.030000,-0.947916
4248.030000,-0.950656
4251.028000,-0.958281
4254.029000,-0.964080
4257.029000,-0.967034
4260.027000,-0.961633
4263.027000,-0.982485
4266.027000,-0.983913
4269.028000,-0.966871
4272.028000,-0.992915
4275.026000,-0.997511
4278.026000,-1.006023
4281.026000,-1.007471
4284.026000,-1.015266
4287.026000,-1.019005
4290.025000,-1.026634
4293.025000,-1.029449
4296.025000,-1.032070
4299.025000,-1.037835
4302.025000,-1.044559
4305.025000,-1.047401
4308.023000,-1.048380
4311.024000,-1.049094
4314.024000,-1.057277
4317.024000,-1.052500
4320.024000,-1.064249
4323.022000,-1.068974
4326.022000,-1.075719
4329.022000,-1.076888
4332.021000,-1.082691
4335.022000,-1.086896
4338.022000,-1.081416
4341.022000,-1.078448
4344.022000,-1.090700
4347.020000,-1.086723
4350.020000,-1.077259
4353.020000,-1.072156
4356.021000,-1.095354
4359.021000,-1.099338
4362.019000,-1.104645
4365.019000,-1.108544
4368.019000,-1.109574
4371.019000,-1.110505
4374.019000,-1.113293
4377.018000,-1.107259
4380.018000,-1.109577
4383.018000,-1.118259
4386.018000,-1.107323
4389.017000,-1.099661
4392.017000,-1.120816
4395.017000,-1.112657
4398.018000,-1.119269
4401.016000,-1.124334
4404.016000,-1.118987
4407.016000,-1.126598
4410.016000,-1.127356
4413.016000,-1.127258
4416.016000,-1.128811
4419.014000,-1.128271
4422.015000,-1.127350
4425.015000,-1.128692
4428.015000,-1.131310
4431.015000,-1.112997
4434.013000,-1.125847
4437.013000,-1.125521
4440.013000,-1.113164
4443.014000,-1.137487
4446.014000,-1.121533
4449.014000,-1.114976
4452.012000,-1.129124
4455.012000,-1.132282
4458.012000,-1.113198
4461.012000,-1.132255
4464.012000,-1.128098
4467.011000,-1.113174
4470.011000,-1.128621
4473.011000,-1.116978
4476.011000,-1.125871
4479.011000,-1.124990
4482.009000,-1.105889
4485.009000,-1.103179
4488.010000,-1.120734
4491.010000,-1.117229
4494.010000,-1.117641
4497.008000,-1.124800
4500.008000,-1.104315
4503.008000,-1.097343
4506.008000,-1.110917
4509.009000,-1.122533
4512.009000,-1.105671
4515.007000,-1.106072
4518.007000,-1.115530
4521.007000,-1.092689
4524.007000,-1.117216
4527.007000,-1.103822
4530.005000,-1.107232
4533.006000,-1.097676
4536.006000,-1.097101
4539.006000,-1.105066
4542.006000,-1.095235
4545.004000,-1.105467
4548.004000,-1.088453
4551.004000,-1.097227
4554.005000,-1.098617
4557.005000,-1.083789
4560.003000,-1.093644
4563.003000,-1.077361
4566.003000,-1.097268
4569.003000,-1.080505
4572.003000,-1.073179
4575.004000,-1.089724
4578.003000,-1.066662
4581.003000,-1.061319
4584.001000,-1.076365
4587.001000,-1.079244
4590.001000,-1.061363
4593.001000,-1.085900
4596.001000,-1.060625
4599.002000,-1.057273
4602.000000,-1.055257
4605.000000,-1.063474
4608.000000,-1.063130
4611.000000,-1.061859
4614.000000,-1.058840
4616.998000,-1.043849
4620.000000,-1.064065
4623.000000,-1.044382
4625.998000,-1.055495
4628.998000,-1.048887
4631.998000,-1.030587
4634.998000,-1.048509
4637.998000,-1.047116
4640.997000,-1.028395
4643.997000,-1.047857
4646.997000,-1.040718
4649.997000,-1.024560
4652.997000,-1.045912
4655.997000,-1.023449
4658.995000,-1.018682
4661.995000,-1.038488
4664.996000,-1.011183
4667.996000,-1.030604
4670.996000,-1.007984
4673.994000,-1.026386
4676.994000,-1.019247
4679.994000,-0.996198
4682.994000,-1.011914
4685.995000,-1.000230
4688.993000,-1.020392
4691.993000,-0.992578
4694.993000,-1.011992
4697.993000,-0.993023
4700.993000,-0.978416
4703.991000,-1.002341
4706.992000,-0.987543
4709.992000,-1.000941
4712.992000,-0.980449
4715.992000,-0.980955
4718.992000,-0.975611
4721.990000,-0.988468
4724.991000,-0.967072
4727.990000,-0.985704
4730.990000,-0.967000
4733.990000,-0.981030
4736.990000,-0.959991
4739.990000,-0.985018
4742.990000,-0.971998
4745.988000,-0.953369
4748.988000,-0.972086
4751.989000,-0.976250
4754.989000,-0.968340
4757.989000,-0.960796
4760.987000,-0.977389
4763.987000,-0.974133
4766.987000,-0.965355
4769.987000,-0.954392
4772.988000,-0.978729
4775.988000,-0.977372
4778.986000,-0.981373
4781.986000,-0.978028
4784.986000,-0.967211
4787.986000,-0.959297
4790.986000,-0.969044
4793.985000,-0.985915
4796.985000,-0.985881
4799.985000,-0.981078
4802.985000,-0.956979
4805.985000,-0.963696
4808.983000,-0.989692
4811.983000,-0.983457
4814.983000,-0.991011
4817.984000,-0.989362
4820.984000,-0.998282
4823.982000,-1.004038
4826.982000,-0.996402
4829.982000,-1.004201
4832.982000,-1.006686
4835.982000,-1.007301
4838.983000,-1.011306
4841.981000,-1.016928
4844.981000,-1.023336
4847.981000,-1.020821
4850.981000,-1.022942
4853.981000,-1.029425
4856.979000,-1.028184
4859.980000,-1.034633
4862.980000,-1.041340
4865.980000,-1.045263
4868.980000,-1.047700
4871.978000,-1.040259
4874.978000,-1.045130
4877.978000,-1.058395
4880.978000,-1.061285
4883.979000,-1.064660
4886.979000,-1.063912
4889.977000,-1.055652
4892.977000,-1.079183
4895.977000,-1.086322
4898.977000,-1.087212
4901.977000,-1.088790
4904.976000,-1.091978
4907.976000,-1.095986
4910.976000,-1.101344
4913.976000,-1.109999
4916.976000,-1.114554
4919.974000,-1.119854
4922.974000,-1.121809
4925.975000,-1.128750
4928.975000,-1.129189
4931.975000,-1.133866
4934.973000,-1.133601
4937.973000,-1.148848
4940.973000,-1.147580
4943.973000,-1.160273
4946.973000,-1.164920
4949.974000,-1.163129
4952.972000,-1.170734
4955.972000,-1.179739
4958.972000,-1.183029
4961.972000,-1.190484
4964.972000,-1.195380
4967.970000,-1.201754
4970.971000,-1.209600
4973.971000,-1.210300
4976.971000,-1.215250
4979.971000,-1.224173
4982.971000,-1.225064
4985.969000,-1.227814
4988.969000,-1.231489
4991.970000,-1.243030
4994.970000,-1.243458
4997.970000,-1.252072
5000.969000,-1.254581
5003.969000,-1.235677
5006.969000,-1.259065
5009.967000,-1.272428
5012.967000,-1.274801
5015.968000,-1.282555
5018.968000,-1.276141
5021.968000,-1.285289
5024.966000,-1.291601
5027.966000,-1.294199
5030.966000,-1.296925
5033.966000,-1.298995
5036.967000,-1.294086
5039.965000,-1.300583
5042.965000,-1.306450
5045.965000,-1.284571
5048.965000,-1.299209
5051.965000,-1.315547
5054.963000,-1.319807
5057.964000,-1.322564
5060.964000,-1.324046
5063.963000,-1.307820
5066.963000,-1.303703
5069.963000,-1.326490
5072.963000,-1.332589
5075.963000,-1.333000
5078.961000,-1.330899
5081.962000,-1.329118
5084.962000,-1.337759
5087.962000,-1.330185
5090.962000,-1.330824
5093.962000,-1.339058
5096.960000,-1.319225
5099.960000,-1.320745
5102.961000,-1.351286
5105.961000,-1.351799
5108.961000,-1.349688
5111.959000,-1.335896
5114.959000,-1.325273
5117.959000,-1.345415
5120.959000,-1.355916
5123.960000,-1.355763
5126.958000,-1.338188
5129.958000,-1.347995
5132.958000,-1.355158
5135.958000,-1.352455
5138.958000,-1.351310
5141.958000,-1.347125
5144.956000,-1.350541
5147.957000,-1.357000
5150.956000,-1.354743
5153.956000,-1.344772
5156.957000,-1.329182
5159.955000,-1.353835
5162.955000,-1.354036
5165.955000,-1.345326
5168.956000,-1.333581
5171.956000,-1.345796
5174.954000,-1.335655
5177.954000,-1.336600
5180.954000,-1.353461
5183.954000,-1.338956
5186.954000,-1.326375
5189.955000,-1.345646
5192.953000,-1.330563
5195.953000,-1.319732
5198.953000,-1.322424
5201.953000,-1.316027
5204.953000,-1.330178
5207.951000,-1.327809
5210.951000,-1.302541
5213.952000,-1.299869
5216.952000,-1.315435
5219.952000,-1.320599
5222.950000,-1.294250
5225.950000,-1.291693
5228.950000,-1.306131
5231.950000,-1.306277
5234.951000,-1.286597
5237.951000,-1.287964
5240.949000,-1.308534
5243.949000,-1.284041
5246.949000,-1.297462
5249.949000,-1.280597
5252.949000,-1.271269
5255.948000,-1.269930
5258.948000,-1.278585
5261.948000,-1.261707
5264.948000,-1.257743
5267.948000,-1.257104
5270.946000,-1.262067
5273.946000,-1.250828
5276.946000,-1.260663
5279.947000,-1.259813
5282.947000,-1.242931
5285.945000,-1.244978
5288.945000,-1.234246
5291.945000,-1.243346
5294.945000,-1.239552
5297.945000,-1.227076
5300.946000,-1.250339
5303.944000,-1.230520
5306.944000,-1.243686
5309.944000,-1.241361
5312.944000,-1.220947
5315.944000,-1.231285
5318.942000,-1.225458
5321.943000,-1.212146
5324.943000,-1.230398
5327.943000,-1.207900
5330.943000,-1.222827
5333.941000,-1.202746
5336.941000,-1.208821
5339.941000,-1.199779
5342.941000,-1.205765
5345.942000,-1.209906
5348.942000,-1.189274
5351.940000,-1.203110
5354.940000,-1.199962
5357.940000,-1.190467
5360.940000,-1.204262
5363.939000,-1.177903
5366.940000,-1.198759
5369.940000,-1.181010
5372.940000,-1.196773
5375.938000,-1.175734
5378.938000,-1.193986
5381.938000,-1.182088
5384.938000,-1.162473
5387.939000,-1.186052
5390.937000,-1.173610
5393.938000,-1.159063
5396.937000,-1.162962
5399.937000,-1.166780
5402.937000,-1.169911
5405.935000,-1.163058
5408.935000,-1.153624
5411.936000,-1.158886
5414.936000,-1.146247
5417.936000,-1.155388
5420.936000,-1.159026
5423.934000,-1.145289
5426.935000,-1.138666
5429.933000,-1.136504
5432.934000,-1.157612
5435.934000,-1.132445
5438.934000,-1.142215
5441.934000,-1.137592
5444.934000,-1.134825
5447.932000,-1.149048
5450.932000,-1.133676
5453.933000,-1.131249
5456.933000,-1.137490
5459.933000,-1.120687
5462.931000,-1.138316
5465.931000,-1.116767
5468.931000,-1.131946
5471.931000,-1.119500
5474.931000,-1.132439
5477.930000,-1.132806
5480.930000,-1.113344
5483.930000,-1.130545
5486.929000,-1.123546
5489.929000,-1.107317
5492.929000,-1.114918
5495.929000,-1.118841
5498.930000,-1.129012
5501.928000,-1.119276
5504.928000,-1.109825
5507.928000,-1.128873
5510.927000,-1.114381
5513.927000,-1.117008
5516.927000,-1.123726
5519.928000,-1.105770
5522.928000,-1.117365
5525.926000,-1.127635
5528.926000,-1.122397
5531.926000,-1.114840
5534.926000,-1.100878
5537.926000,-1.127754
5540.924000,-1.114836
5543.925000,-1.097550
5546.925000,-1.098220
5549.925000,-1.108608
5552.925000,-1.124698
5555.925000,-1.128669
5558.923000,-1.118963
5561.923000,-1.112582
5564.924000,-1.128754
5567.924000,-1.130695
5570.924000,-1.128723
5573.922000,-1.133227
5576.922000,-1.129688
5579.922000,-1.128628
5582.922000,-1.129043
5585.923000,-1.137113
5588.923000,-1.138218
5591.921000,-1.139367
5594.921000,-1.138704
5597.921000,-1.143412
5600.921000,-1.135461
5603.921000,-1.143358
5606.919000,-1.148705
5609.920000,-1.149113
5612.920000,-1.150969
5615.920000,-1.134438
5618.920000,-1.128454
5621.918000,-1.148596
5624.918000,-1.158360
5627.918000,-1.149375
5630.919000,-1.160035
5633.919000,-1.159284
5636.917000,-1.161735
5639.917000,-1.139482
5642.917000,-1.158037
5645.917000,-1.149259
5648.917000,-1.167008
5651.918000,-1.166352
5654.916000,-1.171869
5657.916000,-1.175554
5660.916000,-1.173837
5663.916000,-1.182672
5666.916000,-1.186745
5669.914000,-1.185555
5672.914000,-1.171828
5675.915000,-1.185739
5678.915000,-1.192507
5681.915000,-1.195624
5684.913000,-1.199955
5687.913000,-1.200996
5690.913000,-1.201852
5693.913000,-1.204198
5696.914000,-1.208920
5699.914000,-1.211864
5702.912000,-1.218639
5705.912000,-1.221120
5708.912000,-1.221766
5711.912000,-1.222198
5714.912000,-1.226838
5717.911000,-1.205231
5720.911000,-1.226757
5723.911000,-1.222837
5726.911000,-1.237683
5729.910000,-1.250162
5732.910000,-1.250770
5735.910000,-1.251005
5738.910000,-1.254472
5741.909000,-1.253249
5744.909000,-1.247782
5747.909000,-1.245083
5750.909000,-1.264773
5753.909000,-1.270001
5756.907000,-1.272061
5759.907000,-1.273149
5762.908000,-1.279306
5765.908000,-1.271810
5768.908000,-1.285275
5771.906000,-1.291561
5774.906000,-1.291404
5777.906000,-1.287964
5780.906000,-1.291819
5783.907000,-1.293706
5786.907000,-1.291663
5789.905000,-1.293165
5792.905000,-1.297748
5795.905000,-1.290160
5798.905000,-1.291754
5801.905000,-1.304268
5804.903000,-1.307864
5807.904000,-1.305978
5810.904000,-1.282844
5813.904000,-1.306600
5816.904000,-1.298241
5819.904000,-1.287825
5822.902000,-1.291782
5825.902000,-1.309717
5828.903000,-1.312868
5831.903000,-1.304366
5834.903000,-1.307423
5837.901000,-1.314667
5840.901000,-1.322224
5843.901000,-1.313168
5846.901000,-1.297986
5849.902000,-1.311767
5852.900000,-1.319569
5855.900000,-1.296425
5858.900000,-1.303214
5861.900000,-1.320606
5864.900000,-1.294120
5867.898000,-1.318365
5870.898000,-1.322788
5873.899000,-1.324484
5876.899000,-1.311509
5879.899000,-1.303462
5882.899000,-1.325569
5885.897000,-1.301609
5888.897000,-1.303374
5891.897000,-1.321676
5894.898000,-1.323940
5897.898000,-1.322390
5900.896000,-1.322322
5903.896000,-1.316788
5906.896000,-1.299420
5909.896000,-1.314014
5912.896000,-1.309170
5915.895000,-1.303935
5918.895000,-1.315248
5921.895000,-1.294946
5924.895000,-1.316044
5927.895000,-1.320816
5930.895000,-1.312042
5933.893000,-1.299250
5936.893000,-1.296820
5939.894000,-1.319246
5942.894000,-1.313470
5945.894000,-1.310319
5948.892000,-1.306681
5951.892000,-1.292890
5954.892000,-1.300182
5957.892000,-1.317624
5960.893000,-1.316904
5963.891000,-1.311750
5966.891000,-1.298183
5969.891000,-1.290813
5972.891000,-1.317108
5975.891000,-1.312474
5978.889000,-1.298897
5981.890000,-1.291639
5984.890000,-1.311563
5987.890000,-1.288742
5990.890000,-1.283545
5993.890000,-1.312739
5996.888000,-1.309816
5999.888000,-1.296514
6002.888000,-1.293522
6005.889000,-1.315884
6008.888000,-1.302789
6011.888000,-1.288219
6014.888000,-1.305889
6017.888000,-1.304496
6020.886000,-1.286067
6023.886000,-1.291452
6026.887000,-1.291615
6029.887000,-1.292111
6032.887000,-1.291761
6035.885000,-1.282175
6038.885000,-1.293967
6041.885000,-1.297051
6044.885000,-1.278177
6047.886000,-1.275117
6050.886000,-1.307562
6053.884000,-1.294610
6056.884000,-1.278765
6059.884000,-1.280271
6062.884000,-1.301066
6065.884000,-1.286244
6068.882000,-1.284966
6071.883000,-1.301191
6074.883000,-1.290255
6077.883000,-1.277086
6080.883000,-1.295586
6083.881000,-1.287899
6086.881000,-1.271878
6089.881000,-1.288691
6092.882000,-1.263406
6095.882000,-1.271545
6098.880000,-1.288460
6101.880000,-1.266809
6104.880000,-1.277113
6107.880000,-1.290599
6110.880000,-1.286815
6113.881000,-1.266374
6116.879000,-1.271177
6119.879000,-1.276974
6122.879000,-1.253738
6125.879000,-1.260456
6128.879000,-1.262346
6131.877000,-1.259969
6134.877000,-1.267186
6137.878000,-1.247708
6140.878000,-1.269179
6143.878000,-1.248381
6146.876000,-1.250271
6149.876000,-1.247558
6152.876000,-1.267914
6155.876000,-1.271242
6158.877000,-1.260320
6161.877000,-1.249190
6164.875000,-1.269593
6167.875000,-1.265681
6170.875000,-1.242595
6173.875000,-1.253052
6176.875000,-1.277507
6179.874000,-1.271684
6182.874000,-1.269818
6185.874000,-1.270610
6188.874000,-1.270644
6191.874000,-1.270090
6194.872000,-1.271599
6197.872000,-1.279370
6200.872000,-1.271089
6203.873000,-1.257076
6206.873000,-1.267037
6209.873000,-1.267084
6212.871000,-1.263665
6215.871000,-1.280886
6218.871000,-1.280931
6221.871000,-1.276035
6224.872000,-1.271419
6227.870000,-1.282059
6230.870000,-1.266707
6233.870000,-1.267985
6236.870000,-1.291170
6239.870000,-1.268261
6242.868000,-1.268036
6245.869000,-1.275872
6248.869000,-1.268468
6251.869000,-1.291802
6254.869000,-1.291972
6257.869000,-1.289582
6260.868000,-1.275131
6263.868000,-1.269767
6266.866000,-1.290673
6269.867000,-1.291836
6272.867000,-1.291707
6275.867000,-1.291867
6278.867000,-1.274815
6281.867000,-1.297833
6284.865000,-1.291887
6287.865000,-1.298417
6290.866000,-1.289133
6293.866000,-1.280893
6296.866000,-1.301609
6299.864000,-1.298091
6302.864000,-1.284333
6305.864000,-1.277378
6308.864000,-1.297714
6311.865000,-1.308007
6314.863000,-1.302079
6317.863000,-1.306386
6320.863000,-1.286329
6323.863000,-1.306403
6326.863000,-1.296238
6329.861000,-1.288029
6332.861000,-1.300406
6335.862000,-1.314150
6338.862000,-1.314660
6341.862000,-1.313915
6344.862000,-1.320782
6347.860000,-1.301266
6350.860000,-1.304468
6353.860000,-1.315020
6356.861000,-1.296996
6359.861000,-1.319752
6362.859000,-1.306879
6365.859000,-1.306532
6368.859000,-1.325735
6371.859000,-1.323019
6374.859000,-1.331990
6377.858000,-1.327609
6380.858000,-1.318185
6383.858000,-1.304152
6386.858000,-1.321377
6389.858000,-1.331463
6392.858000,-1.327598
6395.856000,-1.324253
6398.856000,-1.328877
6401.857000,-1.332565
6404.857000,-1.311787
6407.857000,-1.308657
6410.855000,-1.326670
6413.855000,-1.332531
6416.855000,-1.332412
6419.855000,-1.325916
6422.856000,-1.318063
6425.856000,-1.314697
6428.854000,-1.332572
6431.854000,-1.329206
6434.854000,-1.317019
6437.854000,-1.307399
6440.854000,-1.329210
6443.853000,-1.311971
6446.853000,-1.301331
6449.853000,-1.325705
6452.853000,-1.322071
6455.853000,-1.316999
6458.851000,-1.308211
6461.851000,-1.311900
6464.852000,-1.315843
6467.852000,-1.298292
6470.852000,-1.315561
6473.850000,-1.311757
6476.850000,-1.304638
6479.850000,-1.319606
6482.850000,-1.295881
6485.850000,-1.315092
6488.851000,-1.321612
6491.849000,-1.307382
6494.849000,-1.291778
6497.849000,-1.291761
6500.849000,-1.290775
6503.849000,-1.307317
6506.847000,-1.314735
6509.848000,-1.295885
6512.848000,-1.291336
6515.848000,-1.316163
6518.848000,-1.291775
6521.846000,-1.288926
6524.846000,-1.284806
6527.846000,-1.286003
6530.847000,-1.307830
6533.847000,-1.299305
6536.847000,-1.286373
6539.845000,-1.287362
6542.845000,-1.281712
6545.845000,-1.311206
6548.845000,-1.287430
6551.845000,-1.286397
6554.844000,-1.293145
6557.844000,-1.303282
6560.844000,-1.290320
6563.844000,-1.281634
6566.844000,-1.301881
6569.842000,-1.285622
6572.842000,-1.283609
6575.843000,-1.300416
6578.843000,-1.282889
6581.843000,-1.271912
6584.843000,-1.280410
6587.841000,-1.296582
6590.841000,-1.274145
6593.841000,-1.266680
6596.842000,-1.294804
6599.842000,-1.267234
6602.840000,-1.293301
6605.840000,-1.271534
6608.841000,-1.261207
6611.839000,-1.278459
6614.839000,-1.291918
6617.839000,-1.274577
6620.840000,-1.274574
6623.840000,-1.287362
6626.838000,-1.273017
6629.838000,-1.259551
6632.838000,-1.253262
6635.838000,-1.282226
6638.838000,-1.261941
6641.837000,-1.257614
6644.837000,-1.268543
6647.837000,-1.273758
6650.837000,-1.276889
6653.837000,-1.254564
6656.837000,-1.274087
6659.835000,-1.252215
6662.836000,-1.274312
6665.836000,-1.254415
6668.836000,-1.255367
6671.836000,-1.272279
6674.834000,-1.252368
6677.834000,-1.263603
6680.834000,-1.258334
6683.834000,-1.253160
6686.835000,-1.263665
6689.833000,-1.240276
6692.833000,-1.264508
6695.833000,-1.247368
6698.833000,-1.236663
6701.833000,-1.236809
6704.831000,-1.248187
6707.832000,-1.242245
6710.832000,-1.245410
6713.832000,-1.242438
6716.832000,-1.250471
6719.832000,-1.244947
6722.830000,-1.235568
6725.830000,-1.257991
6728.831000,-1.250403
6731.831000,-1.246552
6734.831000,-1.237587
6737.829000,-1.239182
6740.829000,-1.255696
6743.829000,-1.249142
6746.829000,-1.234297
6749.829000,-1.254265
6752.830000,-1.234178
6755.828000,-1.254476
6758.828000,-1.251168
6761.828000,-1.261397
6764.828000,-1.258841
6767.828000,-1.254496
6770.826000,-1.267159
6773.827000,-1.245566
6776.827000,-1.266354
6779.827000,-1.258300
6782.827000,-1.253813
6785.825000,-1.272738
6788.825000,-1.271704
6791.825000,-1.275886
6794.826000,-1.278697
6797.826000,-1.280703
6800.824000,-1.282219
6803.824000,-1.286546
6806.824000,-1.282868
6809.824000,-1.291088
6812.824000,-1.288566
6815.824000,-1.274135
6818.823000,-1.287138
6821.824000,-1.291537
6824.822000,-1.292472
6827.822000,-1.294977
6830.822000,-1.294256
6833.822000,-1.301861
6836.822000,-1.302276
6839.823000,-1.310985
6842.821000,-1.312127
6845.821000,-1.300022
6848.821000,-1.293413
6851.821000,-1.316067
6854.821000,-1.316237
6857.819000,-1.311770
6860.820000,-1.322132
6863.820000,-1.323988
6866.820000,-1.313729
6869.820000,-1.312923
6872.819000,-1.327938
6875.819000,-1.329274
6878.819000,-1.319718
6881.817000,-1.324831
6884.818000,-1.334754
6887.818000,-1.332596
6890.818000,-1.336182
6893.818000,-1.330794
6896.816000,-1.322577
6899.816000,-1.323638
