Time(s),Position(V)
0.351000,1.615560
3.366000,1.604580
6.366000,1.590798
9.365000,1.574807
12.365000,1.559105
15.365000,1.539711
18.365000,1.515898
21.365000,1.492258
24.363000,1.468608
27.363000,1.443853
30.364000,1.412503
33.364000,1.378845
36.364000,1.342345
39.364000,1.312148
42.362000,1.275376
45.362000,1.238067
48.362000,1.198793
51.362000,1.160250
54.363000,1.120218
57.361000,1.080760
60.361000,1.035734
63.361000,0.987941
66.361000,0.943510
69.361000,0.893107
72.359000,0.843961
75.360000,0.793846
78.360000,0.743357
81.360000,0.689700
84.359000,0.634312
87.359000,0.579102
90.359000,0.522909
93.359000,0.467361
96.358000,0.408942
99.358000,0.352633
102.358000,0.294108
105.358000,0.232639
108.358000,0.173838
111.356000,0.112182
114.356000,0.051798
117.356000,-0.009665
120.357000,-0.070943
123.357000,-0.133014
126.357000,-0.192899
129.355000,-0.255395
132.355000,-0.318356
135.355000,-0.380838
138.355000,-0.444038
141.356000,-0.506132
144.354000,-0.568801
147.354000,-0.632157
150.354000,-0.694789
153.354000,-0.755891
156.354000,-0.814130
159.354000,-0.873485
162.354000,-0.933730
165.354000,-0.992432
168.352000,-1.051402
171.352000,-1.110254
174.352000,-1.167293
177.352000,-1.226729
180.352000,-1.283205
183.350000,-1.341580
186.351000,-1.401509
189.351000,-1.456768
192.351000,-1.511329
195.351000,-1.563222
198.351000,-1.615342
201.349000,-1.663098
204.349000,-1.707407
207.350000,-1.753660
210.350000,-1.796476
213.350000,-1.840427
216.348000,-1.883366
219.348000,-1.924700
222.349000,-1.968764
225.348000,-2.011662
228.349000,-2.055345
231.347000,-2.101758
234.347000,-2.145723
237.347000,-2.185493
240.347000,-2.220355
243.347000,-2.258578
246.347000,-2.289850
249.345000,-2.318001
252.346000,-2.344398
255.346000,-2.370699
258.346000,-2.391021
261.346000,-2.411931
264.344000,-2.432903
267.344000,-2.450848
270.344000,-2.469474
273.345000,-2.483687
276.345000,-2.498662
279.343000,-2.511440
282.343000,-2.526714
285.343000,-2.541532
288.343000,-2.536552
291.343000,-2.556558
294.342000,-2.569262
297.342000,-2.568014
300.342000,-2.575592
303.342000,-2.571869
306.342000,-2.577080
309.342000,-2.580990
312.340000,-2.559308
315.340000,-2.556650
318.341000,-2.550402
321.341000,-2.545741
324.341000,-2.540553
327.339000,-2.521992
330.339000,-2.512851
333.339000,-2.498845
336.339000,-2.484149
339.340000,-2.474281
342.340000,-2.461400
345.339000,-2.442540
348.339000,-2.427606
351.337000,-2.415249
354.337000,-2.398469
357.337000,-2.370152
360.338000,-2.351618
363.338000,-2.329668
366.338000,-2.304070
369.336000,-2.279774
372.336000,-2.247224
375.336000,-2.217621
378.336000,-2.184800
381.336000,-2.151804
384.335000,-2.112289
387.335000,-2.075167
390.335000,-2.032062
393.335000,-1.991435
396.335000,-1.952627
399.333000,-1.913393
402.333000,-1.873786
405.334000,-1.833656
408.334000,-1.795623
411.334000,-1.758388
414.332000,-1.718145
417.332000,-1.682662
420.332000,-1.643089
423.332000,-1.603577
426.333000,-1.563086
429.333000,-1.516139
432.331000,-1.472035
435.331000,-1.428834
438.331000,-1.378152
441.331000,-1.330331
444.331000,-1.280094
447.329000,-1.232937
450.330000,-1.185140
453.330000,-1.140036
456.330000,-1.093287
459.330000,-1.046806
462.328000,-1.000693
465.329000,-0.954280
468.329000,-0.907316
471.328000,-0.864364
474.328000,-0.819352
477.328000,-0.772606
480.328000,-0.729198
483.328000,-0.683237
486.326000,-0.638596
489.326000,-0.593060
492.327000,-0.547364
495.327000,-0.502039
498.327000,-0.457085
501.327000,-0.415876
504.325000,-0.374342
507.325000,-0.330115
510.325000,-0.286588
513.325000,-0.241576
516.326000,-0.205664
519.324000,-0.163252
522.324000,-0.128907
525.325000,-0.090048
528.323000,-0.053470
531.323000,-0.014376
534.323000,0.021019
537.324000,0.060062
540.324000,0.095392
543.322000,0.128347
546.322000,0.159673
549.322000,0.188575
552.322000,0.217059
555.322000,0.245713
558.321000,0.275931
561.321000,0.305122
564.321000,0.335354
567.321000,0.355285
570.321000,0.386454
573.321000,0.412076
576.319000,0.435600
579.319000,0.458808
582.320000,0.481262
585.320000,0.494958
588.320000,0.515494
591.318000,0.536523
594.318000,0.554238
597.318000,0.558804
600.318000,0.576069
603.319000,0.591683
606.317000,0.601297
609.317000,0.599655
612.318000,0.618784
615.316000,0.626925
618.316000,0.630736
621.316000,0.635978
624.317000,0.645874
627.317000,0.642471
630.315000,0.639898
633.315000,0.643498
636.315000,0.633126
639.315000,0.630267
642.315000,0.625637
645.313000,0.624495
648.314000,0.614776
651.314000,0.607042
654.314000,0.601885
657.314000,0.585751
660.314000,0.575978
663.312000,0.566068
666.312000,0.551736
669.313000,0.539032
672.313000,0.526815
675.313000,0.509052
678.311000,0.493099
681.311000,0.476333
684.311000,0.456959
687.311000,0.434455
690.312000,0.413385
693.310000,0.391655
696.310000,0.369753
699.310000,0.354244
702.310000,0.324890
705.310000,0.299557
708.310000,0.272980
711.308000,0.246998
714.309000,0.218256
717.309000,0.189986
720.309000,0.161542
723.309000,0.131838
726.307000,0.102354
729.307000,0.071627
732.307000,0.040243
735.308000,0.011123
738.308000,-0.020774
741.308000,-0.053188
744.306000,-0.086744
747.306000,-0.121588
750.306000,-0.153934
753.306000,-0.188799
756.307000,-0.224041
759.305000,-0.258794
762.305000,-0.294767
765.305000,-0.331209
768.305000,-0.368155
771.305000,-0.404488
774.303000,-0.443269
777.303000,-0.479708
780.304000,-0.517140
783.304000,-0.556274
786.304000,-0.598094
789.302000,-0.636750
792.302000,-0.672577
795.302000,-0.711075
798.302000,-0.749027
801.303000,-0.785551
804.303000,-0.819695
807.301000,-0.856083
810.301000,-0.892491
813.301000,-0.928253
816.301000,-0.962085
819.301000,-0.997351
822.300000,-1.033739
825.300000,-1.067873
828.300000,-1.102462
831.300000,-1.137143
834.300000,-1.170655
837.298000,-1.205296
840.298000,-1.241310
843.298000,-1.273387
846.299000,-1.305284
849.299000,-1.339561
852.299000,-1.373902
855.297000,-1.404436
858.297000,-1.435589
861.297000,-1.462394
864.297000,-1.491921
867.298000,-1.523587
870.296000,-1.527164
873.296000,-1.572618
876.296000,-1.598699
879.296000,-1.621805
882.296000,-1.645217
885.294000,-1.664363
888.295000,-1.686585
891.295000,-1.704463
894.295000,-1.724564
897.295000,-1.738896
900.295000,-1.758936
903.293000,-1.775766
906.293000,-1.787535
909.293000,-1.803275
912.294000,-1.818042
915.294000,-1.828981
918.292000,-1.841726
921.292000,-1.853916
924.292000,-1.863119
927.292000,-1.874796
930.292000,-1.882605
933.291000,-1.891025
936.292000,-1.900666
939.292000,-1.903810
942.290000,-1.908481
945.290000,-1.916667
948.290000,-1.905085
951.290000,-1.917762
954.291000,-1.909277
957.289000,-1.913499
960.289000,-1.922681
963.289000,-1.906571
966.289000,-1.907336
969.289000,-1.907387
972.289000,-1.896977
975.287000,-1.902906
978.288000,-1.896179
981.288000,-1.890967
984.288000,-1.878923
987.288000,-1.878841
990.286000,-1.859509
993.286000,-1.852859
996.286000,-1.842076
999.287000,-1.838388
1002.287000,-1.817610
1005.285000,-1.808921
1008.285000,-1.795252
1011.285000,-1.784860
1014.285000,-1.771983
1017.285000,-1.754377
1020.284000,-1.738865
1023.284000,-1.723360
1026.284000,-1.705105
1029.284000,-1.693136
1032.284000,-1.679021
1035.284000,-1.659800
1038.282000,-1.639373
1041.282000,-1.622128
1044.283000,-1.603750
1047.283000,-1.580083
1050.283000,-1.560128
1053.281000,-1.538528
1056.281000,-1.516799
1059.281000,-1.492057
1062.281000,-1.464427
1065.282000,-1.444285
1068.282000,-1.431268
1071.280000,-1.392460
1074.280000,-1.365509
1077.280000,-1.340802
1080.280000,-1.311339
1083.280000,-1.282457
1086.279000,-1.258273
1089.279000,-1.232954
1092.279000,-1.207101
1095.279000,-1.179494
1098.279000,-1.154260
1101.277000,-1.130470
1104.277000,-1.100796
1107.278000,-1.078183
1110.278000,-1.048965
1113.278000,-1.022677
1116.276000,-1.002229
1119.276000,-0.974914
1122.276000,-0.947576
1125.276000,-0.921346
1128.276000,-0.894208
1131.277000,-0.871812
1134.275000,-0.847679
1137.275000,-0.823887
1140.275000,-0.798163
1143.275000,-0.772283
1146.275000,-0.748860
1149.273000,-0.726815
1152.274000,-0.702516
1155.274000,-0.678539
1158.274000,-0.654226
1161.274000,-0.633425
1164.272000,-0.607875
1167.272000,-0.587825
1170.272000,-0.559551
1173.273000,-0.542149
1176.273000,-0.517296
1179.273000,-0.498813
1182.271000,-0.475935
1185.271000,-0.460294
1188.271000,-0.438751
1191.271000,-0.417648
1194.271000,-0.402605
1197.270000,-0.384394
1200.270000,-0.368556
1203.270000,-0.347663
1206.270000,-0.335758
1209.270000,-0.312907
1212.268000,-0.299401
1215.268000,-0.284470
1218.269000,-0.272817
1221.269000,-0.257016
1224.269000,-0.254545
1227.267000,-0.231847
1230.267000,-0.220292
1233.267000,-0.208037
1236.267000,-0.196560
1239.268000,-0.192981
1242.268000,-0.185692
1245.266000,-0.180488
1248.266000,-0.159363
1251.266000,-0.173916
1254.266000,-0.148991
1257.266000,-0.141751
1260.264000,-0.154104
1263.265000,-0.139793
1266.265000,-0.133714
1269.265000,-0.141441
1272.265000,-0.141577
1275.265000,-0.127089
1278.263000,-0.143433
1281.263000,-0.135496
1284.264000,-0.130934
1287.264000,-0.148920
1290.264000,-0.130526
1293.262000,-0.144460
1296.262000,-0.132321
1299.262000,-0.151368
1302.262000,-0.157031
1305.263000,-0.155287
1308.261000,-0.162562
1311.261000,-0.175106
1314.261000,-0.181008
1317.261000,-0.187297
1320.261000,-0.194262
1323.261000,-0.201330
1326.259000,-0.212874
1329.260000,-0.215424
1332.260000,-0.229566
1335.260000,-0.239322
1338.260000,-0.248110
1341.258000,-0.264315
1344.258000,-0.273041
1347.258000,-0.278739
1350.259000,-0.296800
1353.259000,-0.311037
1356.257000,-0.320736
1359.257000,-0.339511
1362.257000,-0.347483
1365.257000,-0.369385
1368.257000,-0.384935
1371.256000,-0.397176
1374.256000,-0.417947
1377.256000,-0.433744
1380.256000,-0.451190
1383.256000,-0.467640
1386.256000,-0.483067
1389.254000,-0.501910
1392.254000,-0.519060
1395.255000,-0.539406
1398.255000,-0.554843
1401.255000,-0.575338
1404.253000,-0.597533
1407.253000,-0.617226
1410.253000,-0.636338
1413.253000,-0.655586
1416.254000,-0.674334
1419.254000,-0.695261
1422.252000,-0.715923
1425.252000,-0.733716
1428.252000,-0.756955
1431.252000,-0.777035
1434.252000,-0.795124
1437.251000,-0.813131
1440.251000,-0.835373
1443.251000,-0.854988
1446.251000,-0.875480
1449.251000,-0.895088
1452.249000,-0.915890
1455.249000,-0.934168
1458.249000,-0.953675
1461.250000,-0.971022
1464.250000,-0.993119
1467.248000,-1.010823
1470.248000,-1.030975
1473.248000,-1.049070
1476.248000,-1.068464
1479.248000,-1.087042
1482.249000,-1.106535
1485.247000,-1.124559
1488.247000,-1.142433
1491.247000,-1.163435
1494.247000,-1.177526
1497.247000,-1.197266
1500.245000,-1.214298
1503.246000,-1.232509
1506.246000,-1.250747
1509.246000,-1.268427
1512.246000,-1.285931
1515.244000,-1.299995
1518.244000,-1.317665
1521.245000,-1.333887
1524.243000,-1.350786
1527.244000,-1.367542
1530.244000,-1.380273
1533.244000,-1.395567
1536.244000,-1.411337
1539.242000,-1.424211
1542.242000,-1.438220
1545.242000,-1.449571
1548.243000,-1.457563
1551.243000,-1.470546
1554.241000,-1.483674
1557.241000,-1.490259
1560.241000,-1.505064
1563.241000,-1.516041
1566.241000,-1.524859
1569.242000,-1.531743
1572.240000,-1.540014
1575.240000,-1.549658
1578.240000,-1.556715
1581.240000,-1.565020
1584.240000,-1.569664
1587.238000,-1.576585
1590.238000,-1.577418
1593.239000,-1.582014
1596.239000,-1.586889
1599.239000,-1.591053
1602.239000,-1.588891
1605.237000,-1.592600
1608.237000,-1.576537
1611.237000,-1.570884
1614.238000,-1.583296
1617.238000,-1.600837
1620.236000,-1.591325
1623.236000,-1.582204
1626.236000,-1.596557
1629.236000,-1.595313
1632.236000,-1.578145
1635.235000,-1.593460
1638.235000,-1.577771
1641.235000,-1.577136
1644.235000,-1.571030
1647.235000,-1.577377
1650.235000,-1.573250
1653.233000,-1.559051
1656.233000,-1.576140
1659.234000,-1.552197
1662.234000,-1.546173
1665.234000,-1.536383
1668.232000,-1.529652
1671.232000,-1.522557
1674.232000,-1.517574
1677.232000,-1.508552
1680.233000,-1.502983
1683.231000,-1.492326
1686.231000,-1.485344
1689.231000,-1.473697
1692.231000,-1.461041
1695.231000,-1.451278
1698.229000,-1.442670
1701.230000,-1.443425
1704.230000,-1.440416
1707.230000,-1.422046
1710.230000,-1.395227
1713.230000,-1.382156
1716.228000,-1.370870
1719.228000,-1.360213
1722.228000,-1.345371
1725.229000,-1.328411
1728.229000,-1.314286
1731.227000,-1.299073
1734.227000,-1.284932
1737.227000,-1.276440
1740.227000,-1.256465
1743.227000,-1.246542
1746.226000,-1.227090
1749.226000,-1.217092
1752.227000,-1.200540
1755.225000,-1.186718
1758.225000,-1.167637
1761.225000,-1.157833
1764.225000,-1.137541
1767.226000,-1.124178
1770.226000,-1.106219
1773.224000,-1.088997
1776.224000,-1.073291
1779.224000,-1.057083
1782.224000,-1.041381
1785.223000,-1.027837
1788.223000,-1.013386
1791.224000,-1.001012
1794.222000,-0.991296
1797.222000,-0.963863
1800.222000,-0.947243
1803.221000,-0.929300
1806.221000,-0.914435
1809.221000,-0.897437
1812.222000,-0.884482
1815.222000,-0.865122
1818.220000,-0.848451
1821.220000,-0.833119
1824.220000,-0.815299
1827.220000,-0.799040
1830.220000,-0.786703
1833.221000,-0.771120
1836.219000,-0.757322
1839.219000,-0.741184
1842.219000,-0.726856
1845.219000,-0.712989
1848.219000,-0.701010
1851.217000,-0.684345
1854.217000,-0.675755
1857.218000,-0.658115
1860.218000,-0.640866
1863.218000,-0.633792
1866.216000,-0.615938
1869.216000,-0.600664
1872.216000,-0.596789
1875.216000,-0.602942
1878.217000,-0.565786
1881.217000,-0.556900
1884.215000,-0.551019
1887.215000,-0.541561
1890.215000,-0.535633
1893.215000,-0.542897
1896.215000,-0.510290
1899.214000,-0.501937
1902.214000,-0.515090
1905.214000,-0.486476
1908.214000,-0.483033
1911.214000,-0.475343
1914.212000,-0.467045
1917.212000,-0.459740
1920.212000,-0.459039
1923.213000,-0.471774
1926.213000,-0.449364
1929.211000,-0.448039
1932.211000,-0.451435
1935.211000,-0.447539
1938.211000,-0.450615
1941.211000,-0.431252
1944.212000,-0.430321
1947.210000,-0.436290
1950.210000,-0.431004
1953.210000,-0.420160
1956.210000,-0.446230
1959.210000,-0.445588
1962.208000,-0.432374
1965.209000,-0.427778
1968.209000,-0.449490
1971.209000,-0.446689
1974.209000,-0.438615
1977.209000,-0.431551
1980.207000,-0.450609
1983.207000,-0.459899
1986.207000,-0.447607
1989.208000,-0.445105
1992.208000,-0.470349
1995.206000,-0.475122
1998.206000,-0.475316
2001.206000,-0.478970
2004.206000,-0.488547
2007.206000,-0.496270
2010.205000,-0.501499
2013.205000,-0.506778
2016.205000,-0.512159
2019.205000,-0.522167
2022.205000,-0.530659
2025.203000,-0.538073
2028.203000,-0.547534
2031.204000,-0.555523
2034.204000,-0.558144
2037.204000,-0.568998
2040.204000,-0.580873
2043.202000,-0.594525
2046.202000,-0.602833
2049.202000,-0.612318
2052.202000,-0.624790
2055.203000,-0.634003
2058.201000,-0.644997
2061.201000,-0.655797
2064.201000,-0.667263
2067.201000,-0.675918
2070.201000,-0.690757
2073.201000,-0.701397
2076.200000,-0.714835
2079.200000,-0.724412
2082.200000,-0.738852
2085.200000,-0.749870
2088.200000,-0.762737
2091.198000,-0.777579
2094.198000,-0.788532
2097.199000,-0.800131
2100.199000,-0.812403
2103.199000,-0.825491
2106.197000,-0.837546
2109.197000,-0.852527
2112.197000,-0.866101
2115.197000,-0.877697
2118.197000,-0.890655
2121.198000,-0.905001
2124.196000,-0.920135
2127.196000,-0.927217
2130.196000,-0.945190
2133.196000,-0.956551
2136.196000,-0.971090
2139.194000,-0.986394
2142.195000,-0.993146
2145.195000,-1.011360
2148.195000,-1.024567
2151.195000,-1.035313
2154.193000,-1.050267
2157.193000,-1.063008
2160.193000,-1.078880
2163.194000,-1.090663
2166.194000,-1.104781
2169.192000,-1.116012
2172.193000,-1.128077
2175.193000,-1.139877
2178.191000,-1.153216
2181.191000,-1.164186
2184.191000,-1.175812
2187.192000,-1.188428
2190.192000,-1.201516
2193.190000,-1.212567
2196.190000,-1.223769
2199.190000,-1.233175
2202.190000,-1.245097
2205.190000,-1.256216
2208.191000,-1.267163
2211.189000,-1.277793
2214.189000,-1.289059
2217.189000,-1.295960
2220.189000,-1.306460
2223.189000,-1.313171
2226.187000,-1.324416
2229.188000,-1.331888
2232.188000,-1.343226
2235.188000,-1.350715
2238.188000,-1.360740
2241.186000,-1.364656
2244.186000,-1.373651
2247.186000,-1.378631
2250.186000,-1.385491
2253.187000,-1.393735
2256.185000,-1.402193
2259.185000,-1.406163
2262.185000,-1.411762
2265.185000,-1.414784
2268.185000,-1.419680
2271.185000,-1.419649
2274.184000,-1.427423
2277.184000,-1.434494
2280.184000,-1.435841
2283.184000,-1.424670
2286.183000,-1.422538
2289.183000,-1.444611
2292.183000,-1.444281
2295.184000,-1.443024
2298.182000,-1.440719
2301.182000,-1.446511
2304.182000,-1.445233
2307.182000,-1.444774
2310.182000,-1.445294
2313.180000,-1.453110
2316.180000,-1.445471
2319.181000,-1.438176
2322.181000,-1.417511
2325.181000,-1.416232
2328.181000,-1.432373
2331.179000,-1.431833
2334.179000,-1.416759
2337.179000,-1.432332
2340.180000,-1.414645
2343.180000,-1.409434
2346.178000,-1.418228
2349.178000,-1.395207
2352.178000,-1.403940
2355.178000,-1.388031
2358.178000,-1.378845
2361.177000,-1.376710
2364.177000,-1.382075
2367.177000,-1.368973
2370.177000,-1.361321
2373.177000,-1.354712
2376.175000,-1.349392
2379.175000,-1.363058
2382.175000,-1.329624
2385.176000,-1.327619
2388.176000,-1.312172
2391.176000,-1.304417
2394.174000,-1.299087
2397.174000,-1.287413
2400.174000,-1.290633
2403.174000,-1.271487
2406.174000,-1.269287
2409.174000,-1.251114
2412.174000,-1.245981
2415.174000,-1.235245
2418.172000,-1.222613
2421.172000,-1.237037
2424.172000,-1.205874
2427.173000,-1.203151
2430.173000,-1.187068
2433.171000,-1.177465
2436.171000,-1.167032
2439.171000,-1.156384
2442.171000,-1.152013
2445.171000,-1.132799
2448.171000,-1.125092
2451.170000,-1.113606
2454.171000,-1.110223
2457.169000,-1.090034
2460.169000,-1.085631
2463.169000,-1.069559
2466.169000,-1.063416
2469.169000,-1.048873
2472.168000,-1.041418
2475.168000,-1.031328
2478.168000,-1.023306
2481.168000,-1.009283
2484.168000,-0.997415
2487.168000,-0.985422
2490.166000,-0.993611
2493.167000,-0.960361
2496.166000,-0.952087
2499.166000,-0.946420
2502.166000,-0.930817
2505.166000,-0.918052
2508.166000,-0.913354
2511.166000,-0.898396
2514.164000,-0.889360
2517.165000,-0.881732
2520.165000,-0.867049
2523.165000,-0.856022
2526.165000,-0.846364
2529.163000,-0.855216
2532.163000,-0.834925
2535.163000,-0.816347
2538.164000,-0.803408
2541.164000,-0.801542
2544.162000,-0.791680
2547.162000,-0.784334
2550.162000,-0.775454
2553.162000,-0.785340
2556.162000,-0.758678
2559.163000,-0.755197
2562.161000,-0.743438
2565.161000,-0.737523
2568.161000,-0.732111
2571.161000,-0.720540
2574.161000,-0.721172
2577.159000,-0.711857
2580.159000,-0.724904
2583.160000,-0.693895
2586.160000,-0.698603
2589.160000,-0.707730
2592.158000,-0.679732
2595.158000,-0.688466
2598.158000,-0.683536
2601.158000,-0.673205
2604.159000,-0.666206
2607.159000,-0.674929
2610.157000,-0.677343
2613.157000,-0.653546
2616.157000,-0.670965
2619.157000,-0.645367
2622.157000,-0.649453
2625.156000,-0.645860
2628.156000,-0.662164
2631.156000,-0.665026
2634.156000,-0.659081
2637.156000,-0.641529
2640.154000,-0.653489
2643.154000,-0.658931
2646.155000,-0.645738
2649.155000,-0.666828
2652.155000,-0.644630
2655.155000,-0.667358
2658.153000,-0.670193
2661.153000,-0.671927
2664.153000,-0.649912
2667.153000,-0.673029
2670.154000,-0.669792
2673.152000,-0.679025
2676.152000,-0.686419
2679.152000,-0.679287
2682.152000,-0.692569
2685.152000,-0.696091
2688.150000,-0.693891
2691.151000,-0.702546
2694.151000,-0.705324
2697.151000,-0.714213
2700.151000,-0.720414
2703.151000,-0.720261
2706.149000,-0.723317
2709.149000,-0.731503
2712.150000,-0.738873
2715.150000,-0.745672
2718.150000,-0.749591
2721.148000,-0.755381
2724.148000,-0.761462
2727.148000,-0.767537
2730.148000,-0.772004
2733.148000,-0.782046
2736.147000,-0.783817
2739.147000,-0.792428
2742.147000,-0.800777
2745.147000,-0.804537
2748.147000,-0.812073
2751.147000,-0.820752
2754.145000,-0.831202
2757.146000,-0.832348
2760.146000,-0.844630
2763.146000,-0.840884
2766.146000,-0.857606
2769.144000,-0.867536
2772.144000,-0.873080
2775.144000,-0.882860
2778.145000,-0.891267
2781.145000,-0.891920
2784.143000,-0.907520
2787.143000,-0.916182
2790.143000,-0.921427
2793.143000,-0.930344
2796.143000,-0.942378
2799.143000,-0.948147
2802.142000,-0.957088
2805.142000,-0.966644
2808.142000,-0.975904
2811.142000,-0.987591
2814.142000,-0.993462
2817.140000,-0.998938
2820.140000,-1.007859
2823.141000,-1.017911
2826.141000,-1.026617
2829.141000,-1.030791
2832.139000,-1.043784
2835.139000,-1.047105
2838.139000,-1.058235
2841.139000,-1.067533
2844.140000,-1.077592
2847.138000,-1.085312
2850.138000,-1.090601
2853.138000,-1.098097
2856.138000,-1.103332
2859.138000,-1.118616
2862.138000,-1.124409
2865.136000,-1.131371
2868.137000,-1.137980
2871.137000,-1.146642
2874.137000,-1.153162
2877.137000,-1.161456
2880.135000,-1.169438
2883.135000,-1.172348
2886.135000,-1.183036
2889.136000,-1.186055
2892.136000,-1.195791
2895.136000,-1.200676
2898.134000,-1.205976
2901.134000,-1.211051
2904.134000,-1.213961
2907.134000,-1.223517
2910.135000,-1.229782
2913.133000,-1.223160
2916.133000,-1.233787
2919.133000,-1.241034
2922.133000,-1.248245
2925.133000,-1.250811
2928.131000,-1.253830
2931.131000,-1.257641
2934.132000,-1.254778
2937.132000,-1.257913
2940.132000,-1.270385
2943.130000,-1.267271
2946.130000,-1.273044
2949.130000,-1.274760
2952.130000,-1.280104
2955.131000,-1.280176
2958.131000,-1.275070
2961.129000,-1.282260
2964.129000,-1.284191
2967.129000,-1.258222
2970.129000,-1.274903
2973.129000,-1.283912
2976.128000,-1.277830
2979.128000,-1.259426
2982.128000,-1.267992
2985.128000,-1.275967
2988.128000,-1.287073
2991.126000,-1.278537
2994.126000,-1.258056
2997.126000,-1.280240
3000.127000,-1.274461
3003.127000,-1.257699
3006.127000,-1.273951
3009.125000,-1.250356
3012.125000,-1.254483
3015.125000,-1.271290
3018.125000,-1.249965
3021.126000,-1.265385
3024.124000,-1.242581
3027.124000,-1.253612
3030.124000,-1.230435
3033.124000,-1.227715
3036.124000,-1.234555
3039.122000,-1.234650
3042.123000,-1.230265
3045.123000,-1.221256
3048.123000,-1.216201
3051.123000,-1.217976
3054.123000,-1.220305
3057.121000,-1.204041
3060.121000,-1.199500
3063.121000,-1.189335
3066.122000,-1.177349
3069.122000,-1.179831
3072.120000,-1.181472
3075.120000,-1.165104
3078.120000,-1.161004
3081.120000,-1.168218
3084.120000,-1.146509
3087.119000,-1.138547
3090.119000,-1.135162
3093.119000,-1.129328
3096.119000,-1.138677
3099.119000,-1.113721
3102.119000,-1.115241
3105.117000,-1.105953
3108.118000,-1.095629
3111.118000,-1.092033
3114.118000,-1.087620
3117.118000,-1.087777
3120.117000,-1.068648
3123.117000,-1.073597
3126.117000,-1.059792
3129.115000,-1.046303
3132.116000,-1.060724
3135.115000,-1.048486
3138.115000,-1.051790
3141.115000,-1.040181
3144.115000,-1.022908
3147.114000,-1.024145
3150.114000,-1.023486
3153.115000,-1.012597
3156.115000,-0.996773
3159.113000,-1.005802
3162.113000,-0.989009
3165.113000,-0.999360
3168.113000,-0.970645
3171.113000,-0.973922
3174.112000,-0.969696
3177.112000,-0.980418
3180.112000,-0.956846
3183.112000,-0.961728
3186.112000,-0.936004
3189.112000,-0.948994
3192.110000,-0.933234
3195.110000,-0.937490
3198.111000,-0.922111
3201.111000,-0.919231
3204.111000,-0.932040
3207.109000,-0.913000
3210.109000,-0.916416
3213.109000,-0.893344
3216.109000,-0.901996
3219.110000,-0.886331
3222.109000,-0.883771
3225.109000,-0.886685
3228.109000,-0.896407
3231.107000,-0.872886
3234.107000,-0.869001
3237.107000,-0.886018
3240.108000,-0.869327
3243.108000,-0.858714
3246.108000,-0.870228
3249.106000,-0.871642
3252.106000,-0.849131
3255.106000,-0.842930
3258.106000,-0.862134
3261.106000,-0.860332
3264.105000,-0.834884
3267.105000,-0.865472
3270.105000,-0.845663
3273.105000,-0.853489
3276.105000,-0.850963
3279.103000,-0.830662
3282.103000,-0.836101
3285.104000,-0.853040
3288.104000,-0.832276
3291.104000,-0.831950
3294.102000,-0.832865
3297.102000,-0.829659
3300.102000,-0.822714
3303.102000,-0.835958
3306.103000,-0.832079
3309.103000,-0.827432
3312.101000,-0.837093
3315.101000,-0.843277
3318.101000,-0.825240
3321.101000,-0.843270
3324.101000,-0.835424
3327.099000,-0.826215
3330.100000,-0.848138
3333.100000,-0.847489
3336.100000,-0.852041
3339.100000,-0.853594
3342.098000,-0.850175
3345.098000,-0.842288
3348.098000,-0.849505
3351.099000,-0.858809
3354.099000,-0.859846
3357.099000,-0.863847
3360.097000,-0.864184
3363.097000,-0.872706
3366.096000,-0.863419
3369.096000,-0.869038
3372.097000,-0.871836
3375.097000,-0.868889
3378.097000,-0.880997
3381.097000,-0.883829
3384.095000,-0.888782
3387.095000,-0.886250
3390.095000,-0.892916
3393.095000,-0.892885
3396.096000,-0.892681
3399.094000,-0.904726
3402.094000,-0.907201
3405.094000,-0.914227
3408.094000,-0.917606
3411.094000,-0.923307
3414.092000,-0.924341
3417.093000,-0.924708
3420.093000,-0.932105
3423.093000,-0.939400
3426.093000,-0.941987
3429.093000,-0.940223
3432.091000,-0.949289
3435.091000,-0.948783
3438.092000,-0.955877
3441.092000,-0.962612
3444.092000,-0.969122
3447.090000,-0.975299
3450.090000,-0.976488
3453.090000,-0.981615
3456.090000,-0.985677
3459.090000,-0.964597
3462.089000,-0.975859
3465.089000,-0.997164
3468.089000,-1.002331
3471.089000,-1.008848
3474.089000,-1.008787
3477.088000,-1.022524
3480.088000,-1.026246
3483.089000,-1.015936
3486.087000,-1.030485
3489.087000,-1.036485
3492.087000,-1.041636
3495.087000,-1.044970
3498.086000,-1.044059
3501.086000,-1.048550
3504.087000,-1.053388
3507.087000,-1.057477
3510.085000,-1.063708
3513.085000,-1.067570
3516.085000,-1.065568
3519.085000,-1.072860
3522.085000,-1.077711
3525.083000,-1.078952
3528.084000,-1.082524
3531.084000,-1.087811
3534.084000,-1.087845
3537.084000,-1.090476
3540.084000,-1.096207
3543.082000,-1.097846
3546.082000,-1.100949
3549.083000,-1.103064
3552.083000,-1.101908
3555.083000,-1.105287
3558.081000,-1.096822
3561.081000,-1.109638
3564.081000,-1.109462
3567.081000,-1.115900
3570.082000,-1.108700
3573.082000,-1.117954
3576.080000,-1.100072
3579.080000,-1.101466
3582.080000,-1.123389
3585.080000,-1.120143
3588.080000,-1.123896
3591.078000,-1.120653
3594.079000,-1.113422
3597.079000,-1.116077
3600.079000,-1.126214
3603.078000,-1.121465
3606.078000,-1.115808
3609.078000,-1.105552
3612.078000,-1.123556
3615.077000,-1.120262
3618.077000,-1.111940
3621.077000,-1.098913
3624.077000,-1.096649
3627.077000,-1.119456
3630.075000,-1.118331
3633.075000,-1.099270
3636.076000,-1.099066
3639.076000,-1.113408
3642.076000,-1.098750
3645.074000,-1.114207
3648.074000,-1.090982
3651.074000,-1.108081
3654.074000,-1.096557
3657.073000,-1.100973
3660.074000,-1.096598
3663.074000,-1.083670
3666.074000,-1.093882
3669.072000,-1.076504
3672.072000,-1.093943
3675.072000,-1.084584
3678.072000,-1.063389
3681.073000,-1.082582
3684.073000,-1.060601
3687.071000,-1.078744
3690.071000,-1.050926
3693.070000,-1.067455
3696.070000,-1.045882
3699.070000,-1.060676
3702.071000,-1.043906
3705.071000,-1.048428
3708.071000,-1.027528
3711.069000,-1.027079
3714.069000,-1.025090
3717.069000,-1.043832
3720.069000,-1.019430
3723.069000,-1.034045
3726.068000,-1.010439
3729.068000,-1.010507
3732.068000,-1.002409
3735.068000,-1.020406
3738.068000,-0.990797
3741.066000,-0.994696
3744.066000,-0.993601
3747.067000,-0.995695
3750.067000,-0.988750
3753.067000,-0.985388
3756.067000,-0.969264
3759.065000,-0.963989
3762.065000,-0.981282
3765.065000,-0.966728
3768.066000,-0.960888
3771.066000,-0.957040
3774.064000,-0.965569
3777.064000,-0.941855
3780.064000,-0.945903
3783.064000,-0.951516
3786.063000,-0.939631
3789.063000,-0.946407
3792.064000,-0.932170
3795.064000,-0.945703
3798.062000,-0.919738
3801.062000,-0.923933
3804.062000,-0.935521
3807.062000,-0.913374
3810.062000,-0.933145
3813.061000,-0.910756
3816.061000,-0.906881
3819.061000,-0.919942
3822.061000,-0.891577
3825.061000,-0.915879
3828.061000,-0.893130
3831.059000,-0.888038
3834.060000,-0.901812
3837.060000,-0.891917
3840.060000,-0.910722
3843.060000,-0.906932
3846.058000,-0.881586
3849.058000,-0.898998
3852.058000,-0.886800
3855.058000,-0.889955
3858.059000,-0.898624
3861.057000,-0.891757
3864.057000,-0.875511
3867.057000,-0.892879
3870.057000,-0.874753
3873.057000,-0.894612
3876.057000,-0.874613
3879.056000,-0.891036
3882.056000,-0.883132
3885.056000,-0.868504
3888.056000,-0.889534
3891.056000,-0.889520
3894.054000,-0.865183
3897.054000,-0.863929
3900.055000,-0.872557
3903.055000,-0.881099
3906.055000,-0.894538
3909.053000,-0.877204
3912.053000,-0.878251
3915.053000,-0.891570
3918.053000,-0.883924
3921.052000,-0.889489
3924.053000,-0.904076
3927.053000,-0.903536
3930.053000,-0.903900
3933.051000,-0.900048
3936.051000,-0.909434
3939.051000,-0.913857
3942.051000,-0.909023
3945.052000,-0.904539
3948.050000,-0.916556
3951.050000,-0.919663
3954.050000,-0.919204
3957.050000,-0.922083
3960.050000,-0.922971
3963.050000,-0.904852
3966.049000,-0.925527
3969.049000,-0.934757
3972.049000,-0.933771
3975.049000,-0.942613
3978.049000,-0.938312
3981.047000,-0.945091
3984.047000,-0.936599
3987.047000,-0.943860
3990.048000,-0.950234
3993.048000,-0.955582
3996.046000,-0.951502
3999.046000,-0.963938
4002.046000,-0.965454
4005.046000,-0.973500
4008.046000,-0.976111
4011.047000,-0.981078
4014.045000,-0.986605
4017.045000,-0.991198
4020.045000,-0.969540
4023.045000,-0.986112
4026.045000,-1.002766
4029.043000,-1.006016
4032.044000,-1.002283
4035.044000,-1.016422
4038.044000,-1.020576
4041.044000,-1.026634
4044.044000,-1.024244
4047.042000,-1.028170
4050.042000,-1.034215
4053.042000,-1.039871
4056.043000,-1.043798
4059.043000,-1.047891
4062.041000,-1.051888
4065.041000,-1.056270
4068.041000,-1.064120
4071.041000,-1.065398
4074.041000,-1.075460
4077.040000,-1.078397
4080.040000,-1.083707
4083.040000,-1.082399
4086.040000,-1.088660
4089.040000,-1.089653
4092.038000,-1.096571
4095.038000,-1.099807
4098.039000,-1.102041
4101.039000,-1.114687
4104.039000,-1.108799
4107.039000,-1.114520
4110.037000,-1.118987
4113.037000,-1.128628
4116.037000,-1.129083
4119.037000,-1.131096
4122.038000,-1.117872
4125.036000,-1.140465
4128.036000,-1.148335
4131.036000,-1.149586
4134.036000,-1.156231
4137.036000,-1.155378
4140.034000,-1.159655
4143.035000,-1.160253
4146.035000,-1.161331
4149.035000,-1.164261
4152.035000,-1.149446
4155.035000,-1.166664
4158.033000,-1.171706
4161.033000,-1.177866
4164.034000,-1.180116
4167.034000,-1.179304
4170.034000,-1.179610
4173.032000,-1.171879
4176.032000,-1.185259
4179.032000,-1.189828
4182.032000,-1.189873
4185.032000,-1.176829
4188.031000,-1.167004
4191.031000,-1.169326
4194.031000,-1.183142
4197.031000,-1.191718
4200.031000,-1.192738
4203.031000,-1.193806
4206.029000,-1.174306
4209.030000,-1.195985
4212.030000,-1.181670
4215.030000,-1.181472
4218.030000,-1.193041
4221.028000,-1.173300
4224.028000,-1.191246
4227.028000,-1.187279
4230.029000,-1.172430
4233.029000,-1.193541
4236.027000,-1.167688
4239.027000,-1.181646
4242.027000,-1.189373
4245.027000,-1.171441
4248.027000,-1.176961
4251.026000,-1.176244
4254.027000,-1.158856
4257.027000,-1.183478
4260.025000,-1.169500
4263.025000,-1.169891
4266.025000,-1.159723
4269.025000,-1.164227
4272.025000,-1.171070
4275.026000,-1.162990
4278.024000,-1.150578
4281.024000,-1.165662
4284.024000,-1.142147
4287.024000,-1.151346
4290.024000,-1.152948
4293.022000,-1.131024
4296.023000,-1.136627
4299.023000,-1.130287
4302.023000,-1.140798
4305.023000,-1.122958
4308.021000,-1.130113
4311.021000,-1.114673
4314.021000,-1.131568
4317.022000,-1.114248
4320.022000,-1.115533
4323.020000,-1.105301
4326.020000,-1.103768
4329.020000,-1.096085
4332.020000,-1.093617
4335.020000,-1.086563
4338.020000,-1.104118
4341.019000,-1.082137
4344.019000,-1.079094
4347.019000,-1.092767
4350.019000,-1.070157
4353.019000,-1.082728
4356.017000,-1.059918
4359.017000,-1.059422
4362.018000,-1.051712
4365.018000,-1.054805
4368.018000,-1.047510
4371.018000,-1.053802
4374.016000,-1.041758
4377.016000,-1.040201
4380.015000,-1.027660
4383.015000,-1.023996
4386.016000,-1.040643
4389.016000,-1.016745
4392.016000,-1.032957
4395.016000,-1.007417
4398.014000,-1.010588
4401.014000,-1.009687
4404.014000,-0.994098
4407.015000,-1.009059
4410.015000,-0.986136
4413.013000,-1.003225
4416.013000,-0.982400
4419.013000,-0.988978
4422.013000,-0.977637
4425.013000,-0.966688
4428.012000,-0.964845
4431.012000,-0.980877
4434.012000,-0.958097
4437.012000,-0.970859
4440.012000,-0.954633
4443.010000,-0.941644
4446.010000,-0.942446
4449.011000,-0.953773
4452.011000,-0.929583
4455.011000,-0.946131
4458.011000,-0.927927
4461.009000,-0.918701
4464.009000,-0.938608
4467.009000,-0.912409
4470.009000,-0.930987
4473.010000,-0.916658
4476.008000,-0.894687
4479.008000,-0.892562
4482.008000,-0.908961
4485.008000,-0.892736
4488.008000,-0.911841
4491.006000,-0.884411
4494.007000,-0.878312
4497.007000,-0.875334
4500.007000,-0.883105
4503.007000,-0.865809
4506.007000,-0.868858
4509.005000,-0.870938
4512.005000,-0.854261
4515.006000,-0.854271
4518.006000,-0.862205
4521.006000,-0.842359
4524.004000,-0.867675
4527.004000,-0.844780
4530.004000,-0.861107
4533.004000,-0.855039
4536.004000,-0.831314
4539.003000,-0.841577
4542.003000,-0.839459
4545.003000,-0.823781
4548.003000,-0.819634
4551.003000,-0.828928
4554.003000,-0.838314
4557.001000,-0.818155
4560.002000,-0.815194
4563.002000,-0.823152
4566.002000,-0.818271
4569.002000,-0.803469
4572.000000,-0.825766
4575.000000,-0.812305
4578.000000,-0.805519
4581.001000,-0.823451
4584.001000,-0.807199
4586.999000,-0.800825
4589.999000,-0.819358
4592.999000,-0.804380
4595.999000,-0.793271
4598.999000,-0.816058
4601.999000,-0.810765
4604.998000,-0.792931
4607.998000,-0.790188
4610.998000,-0.809986
4613.998000,-0.791360
4616.998000,-0.805764
4619.996000,-0.804326
4622.996000,-0.790531
4625.997000,-0.810248
4628.997000,-0.792306
4631.997000,-0.799679
4634.995000,-0.808375
4637.995000,-0.792737
4640.995000,-0.802161
4643.995000,-0.810017
4646.996000,-0.790480
4649.996000,-0.806835
4652.994000,-0.788988
4655.994000,-0.792238
4658.994000,-0.801202
4661.994000,-0.813379
4664.994000,-0.813348
4667.992000,-0.816901
4670.993000,-0.812549
4673.993000,-0.813277
4676.993000,-0.822224
4679.993000,-0.822017
4682.991000,-0.822146
4685.991000,-0.823584
4688.991000,-0.821680
4691.992000,-0.817649
4694.992000,-0.820966
4697.992000,-0.805220
4700.990000,-0.814140
4703.990000,-0.831410
4706.990000,-0.821650
4709.990000,-0.828309
4712.991000,-0.834041
4715.989000,-0.836227
4718.989000,-0.838620
4721.989000,-0.821368
4724.989000,-0.828496
4727.989000,-0.842866
4730.987000,-0.836628
4733.987000,-0.844548
4736.988000,-0.834619
4739.988000,-0.830284
4742.988000,-0.843209
4745.988000,-0.830723
4748.986000,-0.831151
4751.986000,-0.851371
4754.986000,-0.857184
4757.987000,-0.857762
4760.987000,-0.861743
4763.985000,-0.854077
4766.985000,-0.863409
4769.985000,-0.863684
4772.985000,-0.869334
4775.985000,-0.867148
4778.984000,-0.863534
4781.984000,-0.872560
4784.984000,-0.869361
4787.984000,-0.873196
4790.984000,-0.874464
4793.982000,-0.878414
4796.983000,-0.869375
4799.983000,-0.867940
4802.982000,-0.880212
4805.982000,-0.885084
4808.982000,-0.887684
4811.982000,-0.883839
4814.982000,-0.890210
4817.980000,-0.894684
4820.980000,-0.895326
4823.981000,-0.878808
4826.981000,-0.875150
4829.981000,-0.898532
4832.981000,-0.904444
4835.979000,-0.900935
4838.979000,-0.907255
4841.979000,-0.907897
4844.980000,-0.908577
4847.980000,-0.906555
4850.978000,-0.914200
4853.978000,-0.911861
4856.978000,-0.901547
4859.978000,-0.889921
4862.978000,-0.905321
4865.978000,-0.909091
4868.977000,-0.910036
4871.977000,-0.914431
4874.977000,-0.918045
4877.977000,-0.898131
4880.977000,-0.915611
4883.975000,-0.917069
4886.975000,-0.913717
4889.976000,-0.916967
4892.976000,-0.921308
4895.976000,-0.897869
4898.974000,-0.911695
4901.974000,-0.924633
4904.974000,-0.924606
4907.974000,-0.924347
4910.975000,-0.917321
4913.973000,-0.897835
4916.973000,-0.915264
4919.973000,-0.907707
4922.973000,-0.887922
4925.973000,-0.904042
4928.973000,-0.920404
4931.971000,-0.907585
4934.972000,-0.884754
4937.972000,-0.906174
4940.972000,-0.913486
4943.972000,-0.894748
4946.970000,-0.883510
4949.970000,-0.904039
4952.970000,-0.901061
4955.971000,-0.885305
4958.971000,-0.910760
4961.969000,-0.898297
4964.969000,-0.879179
4967.969000,-0.880984
4970.969000,-0.902788
4973.969000,-0.880304
4976.970000,-0.887341
4979.968000,-0.890982
4982.968000,-0.871173
4985.968000,-0.874664
4988.968000,-0.889313
4991.968000,-0.865618
4994.966000,-0.884271
4997.966000,-0.871408
5000.967000,-0.873043
5003.967000,-0.887596
5006.967000,-0.881759
5009.965000,-0.866274
5012.965000,-0.867474
5015.965000,-0.880851
5018.965000,-0.861284
5021.966000,-0.851409
5024.964000,-0.847921
5027.964000,-0.871278
5030.964000,-0.870724
5033.964000,-0.847802
5036.964000,-0.857732
5039.964000,-0.873124
5042.963000,-0.857548
5045.963000,-0.853061
5048.963000,-0.863507
5051.963000,-0.844844
5054.963000,-0.840112
5057.961000,-0.860580
5060.961000,-0.834017
5063.962000,-0.842114
5066.961000,-0.855080
5069.961000,-0.830624
5072.961000,-0.833595
5075.961000,-0.834187
5078.961000,-0.824155
5081.959000,-0.838950
5084.959000,-0.843410
5087.960000,-0.835890
5090.960000,-0.814252
5093.960000,-0.822479
5096.960000,-0.815123
5099.958000,-0.807539
5102.958000,-0.829302
5105.958000,-0.816234
5108.959000,-0.796868
5111.959000,-0.820946
5114.957000,-0.810601
5117.957000,-0.792095
5120.957000,-0.792180
5123.957000,-0.793672
5126.957000,-0.812702
5129.955000,-0.805305
5132.956000,-0.784364
5135.956000,-0.791388
5138.956000,-0.804676
5141.956000,-0.785218
5144.955000,-0.797537
5147.955000,-0.783848
5150.955000,-0.797959
5153.954000,-0.780785
5156.954000,-0.771783
5159.954000,-0.794634
5162.954000,-0.778412
5165.954000,-0.773258
5168.952000,-0.788308
5171.952000,-0.762625
5174.953000,-0.778915
5177.953000,-0.773653
5180.953000,-0.770954
5183.953000,-0.767466
5186.951000,-0.771382
5189.952000,-0.772595
5192.952000,-0.758206
5195.950000,-0.781529
5198.951000,-0.778793
5201.951000,-0.755476
5204.951000,-0.765582
5207.951000,-0.777769
5210.949000,-0.765304
5213.949000,-0.745478
5216.949000,-0.740719
5219.950000,-0.761489
5222.950000,-0.765273
5225.948000,-0.750689
5228.948000,-0.745716
5231.948000,-0.766449
5234.948000,-0.753548
5237.948000,-0.745288
5240.947000,-0.766748
5243.947000,-0.755785
5246.947000,-0.740447
5249.947000,-0.761945
5252.947000,-0.744254
5255.947000,-0.765497
5258.945000,-0.751454
5261.946000,-0.742449
5264.945000,-0.762774
5267.945000,-0.764777
5270.945000,-0.761496
5273.945000,-0.760946
5276.945000,-0.760949
5279.945000,-0.754439
5282.943000,-0.751634
5285.944000,-0.758923
5288.944000,-0.767823
5291.944000,-0.766510
5294.944000,-0.762564
5297.943000,-0.761486
5300.943000,-0.769988
5303.943000,-0.765331
5306.942000,-0.768887
5309.942000,-0.775016
5312.942000,-0.771246
5315.942000,-0.767891
5318.942000,-0.778021
5321.940000,-0.779122
5324.941000,-0.780979
5327.941000,-0.781788
5330.940000,-0.782644
5333.940000,-0.785150
5336.940000,-0.780146
5339.940000,-0.789725
5342.940000,-0.788182
5345.938000,-0.787019
5348.938000,-0.795681
5351.939000,-0.785357
5354.939000,-0.782699
5357.939000,-0.797544
5360.937000,-0.802310
5363.937000,-0.802280
5366.937000,-0.807637
5369.937000,-0.796827
5372.938000,-0.806988
5375.938000,-0.816829
5378.936000,-0.820589
5381.936000,-0.826497
5384.936000,-0.826620
5387.936000,-0.832790
5390.936000,-0.836138
5393.934000,-0.833082
5396.935000,-0.842448
5399.935000,-0.846289
5402.935000,-0.846656
5405.935000,-0.848053
5408.933000,-0.850559
5411.933000,-0.862664
5414.933000,-0.865853
5417.934000,-0.863252
5420.934000,-0.868909
5423.934000,-0.873672
5426.932000,-0.881385
5429.932000,-0.882755
5432.932000,-0.891243
5435.932000,-0.892630
5438.933000,-0.892416
5441.931000,-0.883928
5444.931000,-0.901778
5447.931000,-0.911810
5450.930000,-0.917277
5453.930000,-0.917484
5456.930000,-0.922705
5459.930000,-0.925092
5462.931000,-0.930310
5465.929000,-0.935365
5468.929000,-0.932414
5471.929000,-0.943578
5474.929000,-0.939754
5477.929000,-0.949497
5480.927000,-0.954701
5483.928000,-0.958213
5486.928000,-0.958386
5489.928000,-0.966222
5492.928000,-0.968377
5495.928000,-0.968496
5498.926000,-0.976159
5501.926000,-0.980632
5504.927000,-0.983947
5507.927000,-0.988397
5510.927000,-0.991011
5513.925000,-0.984365
5516.925000,-0.992700
5519.925000,-0.981268
5522.925000,-0.984314
5525.925000,-1.001865
5528.924000,-0.997585
5531.924000,-1.003402
5534.924000,-1.006591
5537.924000,-1.008246
5540.924000,-0.999010
5543.924000,-1.008997
5546.922000,-1.006754
5549.923000,-0.988478
5552.923000,-0.993037
5555.923000,-1.013267
5558.923000,-1.020777
5561.921000,-1.015174
5564.921000,-1.020494
5567.921000,-0.998374
5570.922000,-1.009011
5573.922000,-1.012234
5576.920000,-1.012852
5579.920000,-1.012543
5582.920000,-1.012478
5585.920000,-1.017972
5588.920000,-1.003184
5591.918000,-1.020841
5594.919000,-1.006621
5597.919000,-1.015956
5600.919000,-1.002759
5603.919000,-1.016245
5606.919000,-1.009586
5609.917000,-1.009174
5612.917000,-1.004004
5615.918000,-1.017013
5618.918000,-1.005149
5621.918000,-0.996096
5624.916000,-0.996066
5627.916000,-0.999550
5630.917000,-1.021477
5633.915000,-1.007338
5636.916000,-0.986581
5639.916000,-1.006553
5642.916000,-1.001770
5645.916000,-0.994628
5648.914000,-1.000862
5651.914000,-0.996086
5654.914000,-1.001835
5657.914000,-0.978446
5660.915000,-0.975876
5663.913000,-0.989471
5666.913000,-0.984032
5669.913000,-0.969241
5672.913000,-0.967079
5675.913000,-0.984219
5678.913000,-0.962374
5681.912000,-0.986843
5684.912000,-0.967021
5687.912000,-0.962041
5690.912000,-0.953321
5693.912000,-0.969404
5696.910000,-0.951883
5699.910000,-0.944663
5702.911000,-0.939941
5705.911000,-0.957771
5708.911000,-0.942973
5711.909000,-0.934610
5714.909000,-0.930925
5717.909000,-0.945380
5720.909000,-0.923627
5723.909000,-0.917100
5726.910000,-0.923576
5729.908000,-0.912375
5732.908000,-0.919500
5735.908000,-0.908040
5738.908000,-0.923827
5741.908000,-0.899392
5744.906000,-0.894548
5747.907000,-0.893718
5750.907000,-0.902496
5753.907000,-0.893266
5756.907000,-0.907442
5759.905000,-0.882503
5762.905000,-0.891981
5765.905000,-0.891512
5768.906000,-0.869565
5771.906000,-0.871353
5774.906000,-0.863721
5777.904000,-0.873339
5780.905000,-0.862151
5783.903000,-0.861600
5786.903000,-0.860975
5789.903000,-0.855043
5792.904000,-0.873243
5795.904000,-0.849457
5798.904000,-0.846126
5801.903000,-0.842543
5804.903000,-0.861655
5807.901000,-0.847105
5810.901000,-0.855892
5813.902000,-0.844644
5816.902000,-0.827911
5819.902000,-0.846938
5822.902000,-0.826688
5825.900000,-0.830271
5828.900000,-0.820453
5831.900000,-0.841567
5834.901000,-0.827514
5837.901000,-0.813433
5840.899000,-0.812077
5843.899000,-0.812882
5846.899000,-0.832623
5849.899000,-0.811084
5852.899000,-0.824325
5855.897000,-0.808484
5858.898000,-0.802280
5861.898000,-0.802065
5864.898000,-0.821051
5867.898000,-0.796184
5870.898000,-0.816282
5873.896000,-0.800260
5876.896000,-0.788345
5879.897000,-0.791432
5882.897000,-0.793159
5885.897000,-0.793733
5888.895000,-0.785204
5891.895000,-0.802755
5894.895000,-0.791041
5897.895000,-0.784147
5900.896000,-0.800478
5903.894000,-0.780455
5906.894000,-0.779112
5909.894000,-0.779789
5912.894000,-0.796082
5915.894000,-0.772425
5918.892000,-0.789953
5921.892000,-0.786469
5924.893000,-0.763104
5927.893000,-0.773180
5930.892000,-0.795287
5933.892000,-0.787322
5936.892000,-0.766361
5939.892000,-0.761704
5942.890000,-0.764168
5945.891000,-0.789498
5948.891000,-0.782675
5951.891000,-0.763553
5954.891000,-0.761483
5957.890000,-0.769604
5960.890000,-0.789793
5963.890000,-0.765715
5966.889000,-0.773670
5969.889000,-0.772898
5972.889000,-0.762163
5975.889000,-0.780543
5978.889000,-0.770637
5981.889000,-0.756910
5984.888000,-0.781920
5987.889000,-0.778215
5990.887000,-0.755551
5993.887000,-0.761782
5996.887000,-0.781927
5999.887000,-0.775631
6002.887000,-0.759555
6005.887000,-0.775672
6008.885000,-0.769465
6011.886000,-0.770430
6014.886000,-0.774849
6017.886000,-0.757787
6020.886000,-0.779609
6023.884000,-0.773095
6026.884000,-0.769815
6029.884000,-0.783759
6032.885000,-0.763152
6035.885000,-0.761486
6038.883000,-0.763842
6041.883000,-0.784375
6044.883000,-0.786115
6047.883000,-0.788797
6050.883000,-0.781386
6053.884000,-0.777215
6056.883000,-0.764148
6059.883000,-0.768672
6062.881000,-0.789151
6065.881000,-0.793540
6068.881000,-0.796303
6071.881000,-0.776471
6074.881000,-0.794240
6077.882000,-0.802147
6080.880000,-0.802263
6083.880000,-0.802446
6086.880000,-0.802565
6089.880000,-0.802490
6092.880000,-0.809663
6095.878000,-0.808878
6098.879000,-0.804380
6101.879000,-0.802222
6104.879000,-0.812655
6107.879000,-0.821378
6110.877000,-0.812879
6113.877000,-0.821711
6116.877000,-0.824335
6119.877000,-0.824947
6122.878000,-0.828972
6125.878000,-0.818798
6128.876000,-0.827867
6131.876000,-0.832929
6134.876000,-0.840381
6137.876000,-0.841006
6140.876000,-0.839657
6143.875000,-0.845171
6146.875000,-0.831039
6149.875000,-0.837909
6152.875000,-0.848128
6155.875000,-0.856011
6158.875000,-0.853571
6161.873000,-0.863276
6164.874000,-0.864517
6167.874000,-0.853764
6170.874000,-0.864544
6173.874000,-0.866890
6176.872000,-0.872472
6179.872000,-0.875225
6182.872000,-0.869766
6185.873000,-0.880103
6188.873000,-0.883795
6191.871000,-0.880726
6194.871000,-0.886947
6197.871000,-0.888735
6200.871000,-0.892545
6203.871000,-0.884863
6206.870000,-0.888361
6209.871000,-0.892185
6212.871000,-0.885250
6215.869000,-0.897866
6218.869000,-0.902370
6221.869000,-0.892824
6224.869000,-0.894911
6227.869000,-0.908706
6230.868000,-0.909193
6233.868000,-0.895904
6236.868000,-0.900915
6239.868000,-0.914309
6242.868000,-0.913282
6245.866000,-0.917253
6248.866000,-0.913694
6251.867000,-0.915148
6254.867000,-0.920744
6257.867000,-0.915363
6260.867000,-0.923005
6263.865000,-0.917025
6266.865000,-0.922485
6269.865000,-0.899474
6272.865000,-0.909832
6275.866000,-0.924494
6278.864000,-0.926108
6281.864000,-0.919184
6284.864000,-0.921713
6287.864000,-0.930694
6290.864000,-0.928236
6293.862000,-0.930585
6296.863000,-0.924657
6299.863000,-0.924660
6302.863000,-0.931374
6305.863000,-0.932448
6308.863000,-0.915737
6311.861000,-0.941637
6314.861000,-0.941253
6317.862000,-0.938465
6320.862000,-0.923600
6323.862000,-0.929508
6326.860000,-0.933975
6329.860000,-0.927560
6332.860000,-0.942416
6335.860000,-0.938945
6338.860000,-0.942208
6341.861000,-0.944455
6344.859000,-0.931966
6347.859000,-0.932374
6350.859000,-0.927533
6353.859000,-0.929549
6356.859000,-0.938768
6359.857000,-0.919493
6362.858000,-0.935039
6365.858000,-0.937034
6368.858000,-0.916250
6371.858000,-0.907989
6374.856000,-0.929562
6377.856000,-0.928410
6380.856000,-0.915060
6383.857000,-0.906572
6386.857000,-0.903482
6389.855000,-0.924582
6392.855000,-0.923124
6395.855000,-0.908693
6398.855000,-0.895037
6401.855000,-0.913190
6404.855000,-0.908764
6407.854000,-0.896659
6410.854000,-0.898940
6413.854000,-0.921281
6416.854000,-0.893222
6419.854000,-0.909665
6422.852000,-0.914146
6425.852000,-0.889894
6428.853000,-0.895330
6431.853000,-0.891879
6434.853000,-0.893596
6437.851000,-0.907673
6440.851000,-0.887664
6443.851000,-0.886182
6446.851000,-0.891696
6449.852000,-0.873818
6452.850000,-0.876391
6455.850000,-0.893599
6458.850000,-0.870796
6461.850000,-0.891138
6464.850000,-0.874674
6467.850000,-0.880362
6470.848000,-0.887045
6473.849000,-0.864833
6476.849000,-0.866737
6479.849000,-0.872774
6482.849000,-0.861389
6485.847000,-0.874923
6488.847000,-0.850786
6491.847000,-0.870864
6494.848000,-0.858007
6497.848000,-0.840377
6500.848000,-0.858928
6503.846000,-0.865972
6506.846000,-0.847907
6509.846000,-0.860682
6512.846000,-0.855060
6515.847000,-0.849756
6518.845000,-0.861723
6521.845000,-0.840452
6524.845000,-0.843967
6527.845000,-0.853475
6530.845000,-0.838035
6533.843000,-0.828608
6536.844000,-0.847798
6539.845000,-0.833745
6542.843000,-0.832423
6545.843000,-0.839092
6548.843000,-0.828292
6551.843000,-0.832130
6554.843000,-0.821656
6557.841000,-0.828829
6560.843000,-0.841727
6563.843000,-0.832161
6566.841000,-0.816503
6569.841000,-0.841455
6572.841000,-0.836951
6575.841000,-0.814963
6578.841000,-0.820786
6581.840000,-0.838110
6584.840000,-0.835356
6587.840000,-0.820412
6590.840000,-0.812896
6593.840000,-0.833068
6596.840000,-0.831678
6599.838000,-0.815425
6602.838000,-0.811278
6605.839000,-0.832042
6608.839000,-0.832871
6611.839000,-0.824471
6614.837000,-0.812379
6617.837000,-0.813348
6620.837000,-0.829802
6623.837000,-0.821945
6626.838000,-0.807178
6629.836000,-0.830233
6632.836000,-0.827704
6635.836000,-0.807902
6638.836000,-0.828197
6641.836000,-0.823771
6644.834000,-0.822139
6647.835000,-0.825763
6650.835000,-0.832066
6653.835000,-0.832831
6656.835000,-0.832729
6659.835000,-0.827806
6662.833000,-0.807719
6665.833000,-0.827215
6668.833000,-0.832950
6671.834000,-0.834343
6674.834000,-0.834122
6677.832000,-0.836060
6680.832000,-0.827514
6683.832000,-0.829506
6686.832000,-0.833521
6689.832000,-0.842050
6692.833000,-0.842723
6695.831000,-0.834326
6698.831000,-0.844107
6701.831000,-0.827255
6704.831000,-0.843291
6707.831000,-0.846646
6710.829000,-0.841639
6713.830000,-0.840221
6716.830000,-0.851310
6719.830000,-0.845381
6722.830000,-0.842886
6725.828000,-0.848536
6728.828000,-0.862528
6731.828000,-0.862892
6734.828000,-0.863171
6737.829000,-0.865380
6740.827000,-0.864520
6743.827000,-0.871867
6746.827000,-0.867104
6749.827000,-0.861553
6752.827000,-0.871040
6755.827000,-0.875079
6758.826000,-0.878448
6761.826000,-0.882459
6764.826000,-0.882378
6767.826000,-0.883319
6770.825000,-0.886562
6773.825000,-0.886032
6776.825000,-0.883938
6779.826000,-0.893837
6782.824000,-0.895163
6785.824000,-0.877431
6788.824000,-0.873665
6791.824000,-0.884227
6794.824000,-0.904053
6797.822000,-0.906939
6800.822000,-0.898209
6803.823000,-0.893684
6806.823000,-0.911633
6809.823000,-0.907840
6812.821000,-0.907897
6815.821000,-0.917657
6818.821000,-0.920135
6821.821000,-0.924657
6824.822000,-0.918354
6827.822000,-0.922733
6830.820000,-0.925568
6833.820000,-0.934451
6836.820000,-0.933591
6839.820000,-0.937887
6842.820000,-0.933628
6845.819000,-0.943272
6848.819000,-0.937537
6851.819000,-0.946294
6854.819000,-0.949174
6857.819000,-0.955181
6860.817000,-0.955456
6863.817000,-0.955738
6866.817000,-0.960191
6869.818000,-0.964777
6872.818000,-0.961198
6875.818000,-0.962024
6878.816000,-0.971144
6881.816000,-0.972113
6884.816000,-0.968676
6887.816000,-0.972154
6890.817000,-0.984763
6893.815000,-0.979966
6896.815000,-0.977087
6899.815000,-0.983869
6902.815000,-0.969146
6905.815000,-0.985963
6908.813000,-0.971580
6911.814000,-0.986377
6914.814000,-0.982424
6917.814000,-0.983529
6920.814000,-0.998877
6923.814000,-1.003956
6926.812000,-0.995845
6929.812000,-0.982805
6932.812000,-1.002664
6935.813000,-0.986993
6938.813000,-1.005700
6941.811000,-0.996623
6944.811000,-1.004153
6947.811000,-1.008746
6950.811000,-0.988465
6953.811000,-0.998242
6956.810000,-1.013413
6959.810000,-1.014739
6962.810000,-1.015426
6965.810000,-1.001641
6968.810000,-0.990056
6971.810000,-1.010942
6974.808000,-1.009664
6977.809000,-1.011374
6980.809000,-0.989172
6983.809000,-1.003483
6986.809000,-1.008708
6989.807000,-0.994033
6992.807000,-0.988441
6995.807000,-0.987853
6998.807000,-0.987173
7001.808000,-0.995383
7004.806000,-1.010707
7007.806000,-1.005397
7010.806000,-0.992082
7013.806000,-0.987244
