Time(s),Ch 1  (V),
0.000000,4.397844
1.000000E-8,4.598000
2.000000E-8,4.338000
3.000000E-8,4.168000
4.000000E-8,3.958000
5.000000E-8,3.748000
6.000000E-8,4.228000
7.000000E-8,4.648156
8.000000E-8,4.228000
9.000000E-8,4.128000
1.000000E-7,4.127844
1.100000E-7,3.878000
1.200000E-7,4.058000
1.300000E-7,4.338156
1.400000E-7,4.158000
1.500000E-7,4.108000
1.600000E-7,4.048000
1.700000E-7,3.918000
1.800000E-7,3.957844
1.900000E-7,4.108156
2.000000E-7,4.088000
2.100000E-7,4.117844
2.200000E-7,4.048156
2.300000E-7,3.868000
2.400000E-7,3.877844
2.500000E-7,3.948156
2.600000E-7,4.017844
2.700000E-7,4.008156
2.800000E-7,3.967844
2.900000E-7,3.908000
3.000000E-7,3.798000
3.100000E-7,3.878000
3.200000E-7,3.938000
3.300000E-7,3.878000
3.400000E-7,3.868000
3.500000E-7,3.868000
3.600000E-7,3.828156
3.700000E-7,3.837844
3.800000E-7,3.818156
3.900000E-7,3.788000
4.000000E-7,3.817844
4.100000E-7,3.828000
4.200000E-7,3.798156
4.300000E-7,3.747844
4.400000E-7,3.778156
4.500000E-7,3.747844
4.600000E-7,3.748000
4.700000E-7,3.748000
4.800000E-7,3.708156
4.900000E-7,3.707844
5.000000E-7,3.718000
5.100000E-7,3.678000
5.200000E-7,3.628156
5.300000E-7,3.638000
5.400000E-7,3.667844
5.500000E-7,3.668000
5.600000E-7,3.668156
5.700000E-7,3.647844
5.800000E-7,3.608156
5.900000E-7,3.567844
6.000000E-7,3.568156
6.100000E-7,3.577844
6.200000E-7,3.578000
6.300000E-7,3.578156
6.400000E-7,3.558000
6.500000E-7,3.507844
6.600000E-7,3.478000
6.700000E-7,3.528156
6.800000E-7,3.498000
6.900000E-7,3.517844
7.000000E-7,3.538000
7.100000E-7,3.488000
7.200000E-7,3.418000
7.300000E-7,3.408000
7.400000E-7,3.458000
7.500000E-7,3.468156
7.600000E-7,3.437844
7.700000E-7,3.398000
7.800000E-7,3.388000
7.900000E-7,3.388156
8.000000E-7,3.408000
8.100000E-7,3.377844
8.200000E-7,3.378156
8.300000E-7,3.358000
8.400000E-7,3.347844
8.500000E-7,3.348156
8.600000E-7,3.298000
8.700000E-7,3.337844
8.800000E-7,3.308156
8.900000E-7,3.307844
9.000000E-7,3.288156
9.100000E-7,3.247844
9.200000E-7,3.238156
9.300000E-7,3.267844
9.400000E-7,3.308156
9.500000E-7,3.238000
9.600000E-7,3.187844
9.700000E-7,3.208156
9.800000E-7,3.197844
9.900000E-7,3.188000
1.000000E-6,3.198000
1.010000E-6,3.188000
1.020000E-6,3.208000
1.030000E-6,3.208000
1.040000E-6,3.138000
1.050000E-6,3.158000
1.060000E-6,3.138000
1.070000E-6,3.128156
1.080000E-6,3.118000
1.090000E-6,3.107844
1.100000E-6,3.088000
1.110000E-6,3.098000
1.120000E-6,3.098156
1.130000E-6,3.067844
1.140000E-6,3.038000
1.150000E-6,3.038156
1.160000E-6,3.037844
1.170000E-6,3.028000
1.180000E-6,3.018000
1.190000E-6,3.028156
1.200000E-6,3.017844
1.210000E-6,2.988156
1.220000E-6,3.008000
1.230000E-6,2.987844
1.240000E-6,2.948156
1.250000E-6,2.957844
1.260000E-6,2.938000
1.270000E-6,2.928156
1.280000E-6,2.918000
1.290000E-6,2.918000
1.300000E-6,2.897844
1.310000E-6,2.908000
1.320000E-6,2.908000
1.330000E-6,2.878000
1.340000E-6,2.858000
1.350000E-6,2.868000
1.360000E-6,2.878156
1.370000E-6,2.857844
1.380000E-6,2.828000
1.390000E-6,2.808000
1.400000E-6,2.858156
1.410000E-6,2.827844
1.420000E-6,2.808000
1.430000E-6,2.788156
1.440000E-6,2.788000
1.450000E-6,2.798000
1.460000E-6,2.817844
1.470000E-6,2.748156
1.480000E-6,2.748000
1.490000E-6,2.768000
1.500000E-6,2.748000
1.510000E-6,2.738000
1.520000E-6,2.718000
1.530000E-6,2.728000
1.540000E-6,2.707844
1.550000E-6,2.718000
1.560000E-6,2.678156
1.570000E-6,2.657844
1.580000E-6,2.688000
1.590000E-6,2.668000
1.600000E-6,2.638000
1.610000E-6,2.628156
1.620000E-6,2.648000
1.630000E-6,2.638000
1.640000E-6,2.648000
1.650000E-6,2.617844
1.660000E-6,2.618156
1.670000E-6,2.608000
1.680000E-6,2.577844
1.690000E-6,2.608000
1.700000E-6,2.578156
1.710000E-6,2.547844
1.720000E-6,2.538000
1.730000E-6,2.568000
1.740000E-6,2.548000
1.750000E-6,2.548156
1.760000E-6,2.507844
1.770000E-6,2.518156
1.780000E-6,2.507844
1.790000E-6,2.528156
1.800000E-6,2.507844
1.810000E-6,2.508000
1.820000E-6,2.478000
1.830000E-6,2.488156
1.840000E-6,2.518000
1.850000E-6,2.447844
1.860000E-6,2.458000
1.870000E-6,2.448156
1.880000E-6,2.448000
1.890000E-6,2.437844
1.900000E-6,2.428000
1.910000E-6,2.398156
1.920000E-6,2.427844
1.930000E-6,2.418000
1.940000E-6,2.398000
1.950000E-6,2.378000
1.960000E-6,2.378156
1.970000E-6,2.377844
1.980000E-6,2.368000
1.990000E-6,2.388000
2.000000E-6,2.368156
2.010000E-6,2.368000
2.020000E-6,2.338000
2.030000E-6,2.317844
2.040000E-6,2.328000
2.050000E-6,2.328000
2.060000E-6,2.308000
2.070000E-6,2.308156
2.080000E-6,2.308000
2.090000E-6,2.287844
2.100000E-6,2.308000
2.110000E-6,2.268156
2.120000E-6,2.267844
2.130000E-6,2.248000
2.140000E-6,2.248000
2.150000E-6,2.228000
2.160000E-6,2.238000
2.170000E-6,2.258156
2.180000E-6,2.227844
2.190000E-6,2.248156
2.200000E-6,2.227844
2.210000E-6,2.228156
2.220000E-6,2.227844
2.230000E-6,2.178000
2.240000E-6,2.178000
2.250000E-6,2.208000
2.260000E-6,2.148000
2.270000E-6,2.168000
2.280000E-6,2.138000
2.290000E-6,2.158000
2.300000E-6,2.148000
2.310000E-6,2.128000
2.320000E-6,2.108000
2.330000E-6,2.108000
2.340000E-6,2.128000
2.350000E-6,2.128000
2.360000E-6,2.088000
2.370000E-6,2.098000
2.380000E-6,2.088000
2.390000E-6,2.108000
2.400000E-6,2.078000
2.410000E-6,2.048000
2.420000E-6,2.058000
2.430000E-6,2.068000
2.440000E-6,2.078000
2.450000E-6,2.058000
2.460000E-6,2.038000
2.470000E-6,2.018000
2.480000E-6,2.048000
2.490000E-6,2.008000
2.500000E-6,1.988000
2.510000E-6,2.038000
2.520000E-6,2.008000
2.530000E-6,1.998000
2.540000E-6,1.988000
2.550000E-6,1.968000
2.560000E-6,1.948000
2.570000E-6,1.968000
2.580000E-6,1.948000
2.590000E-6,1.928000
2.600000E-6,1.928000
2.610000E-6,1.928000
2.620000E-6,1.948000
2.630000E-6,1.898000
2.640000E-6,1.908000
2.650000E-6,1.938000
2.660000E-6,1.908000
2.670000E-6,1.918000
2.680000E-6,1.918000
2.690000E-6,1.898000
2.700000E-6,1.868000
2.710000E-6,1.868000
2.720000E-6,1.868000
2.730000E-6,1.868000
2.740000E-6,1.868000
2.750000E-6,1.868000
2.760000E-6,1.848000
2.770000E-6,1.848000
2.780000E-6,1.868000
2.790000E-6,1.828000
2.800000E-6,1.828000
2.810000E-6,1.818000
2.820000E-6,1.858000
2.830000E-6,1.858000
2.840000E-6,1.808000
2.850000E-6,1.778000
2.860000E-6,1.818000
2.870000E-6,1.788000
2.880000E-6,1.768000
2.890000E-6,1.788000
2.900000E-6,1.798000
2.910000E-6,1.758000
2.920000E-6,1.768000
2.930000E-6,1.778000
2.940000E-6,1.738000
2.950000E-6,1.748000
2.960000E-6,1.748000
2.970000E-6,1.708000
2.980000E-6,1.738000
2.990000E-6,1.718000
3.000000E-6,1.758000
3.010000E-6,1.748000
3.020000E-6,1.698000
3.030000E-6,1.688000
3.040000E-6,1.708000
3.050000E-6,1.708000
3.060000E-6,1.708000
3.070000E-6,1.688000
3.080000E-6,1.688000
3.090000E-6,1.668000
3.100000E-6,1.668000
3.110000E-6,1.658000
3.120000E-6,1.668000
3.130000E-6,1.668000
3.140000E-6,1.638000
3.150000E-6,1.648000
3.160000E-6,1.658000
3.170000E-6,1.638000
3.180000E-6,1.648000
3.190000E-6,1.638000
3.200000E-6,1.628000
3.210000E-6,1.628000
3.220000E-6,1.618000
3.230000E-6,1.608000
3.240000E-6,1.618000
3.250000E-6,1.598000
3.260000E-6,1.608000
3.270000E-6,1.568000
3.280000E-6,1.568000
3.290000E-6,1.568000
3.300000E-6,1.588000
3.310000E-6,1.538000
3.320000E-6,1.538000
3.330000E-6,1.568000
3.340000E-6,1.548000
3.350000E-6,1.538000
3.360000E-6,1.558000
3.370000E-6,1.518000
3.380000E-6,1.568000
3.390000E-6,1.528000
3.400000E-6,1.488000
3.410000E-6,1.528000
3.420000E-6,1.498000
3.430000E-6,1.518000
3.440000E-6,1.548000
3.450000E-6,1.498000
3.460000E-6,1.498000
3.470000E-6,1.508000
3.480000E-6,1.518000
3.490000E-6,1.478000
3.500000E-6,1.448000
3.510000E-6,1.468000
3.520000E-6,1.468000
3.530000E-6,1.468000
3.540000E-6,1.438000
3.550000E-6,1.438000
3.560000E-6,1.438000
3.570000E-6,1.428000
3.580000E-6,1.408000
3.590000E-6,1.418000
3.600000E-6,1.428000
3.610000E-6,1.458000
3.620000E-6,1.418000
3.630000E-6,1.408000
3.640000E-6,1.428000
3.650000E-6,1.418000
3.660000E-6,1.388000
3.670000E-6,1.428000
3.680000E-6,1.368000
3.690000E-6,1.368000
3.700000E-6,1.378000
3.710000E-6,1.398000
3.720000E-6,1.388000
3.730000E-6,1.368000
3.740000E-6,1.358000
3.750000E-6,1.348000
3.760000E-6,1.348000
3.770000E-6,1.368000
3.780000E-6,1.358000
3.790000E-6,1.318000
3.800000E-6,1.338000
3.810000E-6,1.378000
3.820000E-6,1.368000
3.830000E-6,1.338000
3.840000E-6,1.318000
3.850000E-6,1.358000
3.860000E-6,1.298000
3.870000E-6,1.298000
3.880000E-6,1.288000
3.890000E-6,1.308000
3.900000E-6,1.288000
3.910000E-6,1.318000
3.920000E-6,1.328000
3.930000E-6,1.258000
3.940000E-6,1.288000
3.950000E-6,1.258000
3.960000E-6,1.278000
3.970000E-6,1.298000
3.980000E-6,1.278000
3.990000E-6,1.268000
4.000000E-6,1.268000
4.010000E-6,1.238000
4.020000E-6,1.248000
4.030000E-6,1.258000
4.040000E-6,1.238000
4.050000E-6,1.248000
4.060000E-6,1.218000
4.070000E-6,1.248000
4.080000E-6,1.248000
4.090000E-6,1.218000
4.100000E-6,1.228000
4.110000E-6,1.218000
4.120000E-6,1.198000
4.130000E-6,1.208000
4.140000E-6,1.198000
4.150000E-6,1.198000
4.160000E-6,1.218000
4.170000E-6,1.188000
4.180000E-6,1.178000
4.190000E-6,1.198000
4.200000E-6,1.188000
4.210000E-6,1.198000
4.220000E-6,1.198000
4.230000E-6,1.178000
4.240000E-6,1.158000
4.250000E-6,1.188000
4.260000E-6,1.168000
4.270000E-6,1.148000
4.280000E-6,1.138000
4.290000E-6,1.148000
4.300000E-6,1.128000
4.310000E-6,1.138000
4.320000E-6,1.158000
4.330000E-6,1.148000
4.340000E-6,1.158000
4.350000E-6,1.148000
4.360000E-6,1.118000
4.370000E-6,1.158000
4.380000E-6,1.128000
4.390000E-6,1.098000
4.400000E-6,1.118000
4.410000E-6,1.118000
4.420000E-6,1.118000
4.430000E-6,1.138000
4.440000E-6,1.108000
4.450000E-6,1.118000
4.460000E-6,1.108000
4.470000E-6,1.098000
4.480000E-6,1.068000
4.490000E-6,1.078000
4.500000E-6,1.058000
4.510000E-6,1.088000
4.520000E-6,1.068000
4.530000E-6,1.098000
4.540000E-6,1.068000
4.550000E-6,1.078000
4.560000E-6,1.068000
4.570000E-6,1.048000
4.580000E-6,1.078000
4.590000E-6,1.058000
4.600000E-6,1.068000
4.610000E-6,1.058000
4.620000E-6,1.038000
4.630000E-6,1.058000
4.640000E-6,1.018000
4.650000E-6,1.008000
4.660000E-6,1.028000
4.670000E-6,1.048000
4.680000E-6,0.998000
4.690000E-6,0.988000
4.700000E-6,1.018000
4.710000E-6,1.018000
4.720000E-6,1.028000
4.730000E-6,1.018000
4.740000E-6,0.988000
4.750000E-6,0.988000
4.760000E-6,1.008000
4.770000E-6,0.988000
4.780000E-6,1.008000
4.790000E-6,0.958000
4.800000E-6,0.988000
4.810000E-6,1.038000
4.820000E-6,0.988000
4.830000E-6,0.968000
4.840000E-6,0.968000
4.850000E-6,0.978000
4.860000E-6,0.978000
4.870000E-6,0.938000
4.880000E-6,0.968000
4.890000E-6,0.958000
4.900000E-6,0.998000
4.910000E-6,0.958000
4.920000E-6,0.948000
4.930000E-6,0.958000
4.940000E-6,0.938000
4.950000E-6,0.938000
4.960000E-6,0.988000
4.970000E-6,0.948000
4.980000E-6,0.938000
4.990000E-6,0.958000
