Time(s),Ch 1  (V),
0.000000,4.168000
2.000000E-8,4.514563
4.000000E-8,4.208000
6.000000E-8,3.874719
8.000000E-8,4.501281
1.000000E-7,4.288000
1.200000E-7,3.928000
1.400000E-7,4.368000
1.600000E-7,4.141438
1.800000E-7,4.008000
2.000000E-7,4.261281
2.200000E-7,4.154719
2.400000E-7,3.981281
2.600000E-7,4.101281
2.800000E-7,4.141438
3.000000E-7,4.021281
3.200000E-7,4.034719
3.400000E-7,4.021281
3.600000E-7,3.981281
3.800000E-7,3.994719
4.000000E-7,3.954719
4.200000E-7,3.981281
4.400000E-7,3.968000
4.600000E-7,3.914719
4.800000E-7,3.968000
5.000000E-7,3.928000
5.200000E-7,3.888000
5.400000E-7,3.848000
5.600000E-7,3.848000
5.800000E-7,3.821281
6.000000E-7,3.821281
6.200000E-7,3.834719
6.400000E-7,3.808000
6.600000E-7,3.754719
6.800000E-7,3.768000
7.000000E-7,3.754563
7.200000E-7,3.728000
7.400000E-7,3.728000
7.600000E-7,3.741437
7.800000E-7,3.648000
8.000000E-7,3.648000
8.200000E-7,3.701281
8.400000E-7,3.648000
8.600000E-7,3.621281
8.800000E-7,3.648000
9.000000E-7,3.634719
9.200000E-7,3.568000
9.400000E-7,3.608000
9.600000E-7,3.608000
9.800000E-7,3.568000
1.000000E-6,3.541281
1.020000E-6,3.554719
1.040000E-6,3.528000
1.060000E-6,3.488000
1.080000E-6,3.488000
1.100000E-6,3.488000
1.120000E-6,3.488000
1.140000E-6,3.501281
1.160000E-6,3.434719
1.180000E-6,3.448000
1.200000E-6,3.408000
1.220000E-6,3.408000
1.240000E-6,3.394719
1.260000E-6,3.368000
1.280000E-6,3.368000
1.300000E-6,3.314563
1.320000E-6,3.341438
1.340000E-6,3.314563
1.360000E-6,3.314719
1.380000E-6,3.274719
1.400000E-6,3.274563
1.420000E-6,3.288000
1.440000E-6,3.248000
1.460000E-6,3.234719
1.480000E-6,3.208000
1.500000E-6,3.221281
1.520000E-6,3.221281
1.540000E-6,3.141437
1.560000E-6,3.181281
1.580000E-6,3.168000
1.600000E-6,3.128000
1.620000E-6,3.141281
1.640000E-6,3.154719
1.660000E-6,3.088000
1.680000E-6,3.114719
1.700000E-6,3.088000
1.720000E-6,3.101281
1.740000E-6,3.061438
1.760000E-6,3.034563
1.780000E-6,3.034719
1.800000E-6,3.034719
1.820000E-6,3.021281
1.840000E-6,3.008000
1.860000E-6,2.981281
1.880000E-6,2.994719
1.900000E-6,2.981281
1.920000E-6,2.954719
1.940000E-6,2.954719
1.960000E-6,2.901281
1.980000E-6,2.928000
2.000000E-6,2.888000
2.020000E-6,2.901281
2.040000E-6,2.874719
2.060000E-6,2.834563
2.080000E-6,2.888000
2.100000E-6,2.861438
2.120000E-6,2.848000
2.140000E-6,2.808000
2.160000E-6,2.821281
2.180000E-6,2.834719
2.200000E-6,2.794563
2.220000E-6,2.794719
2.240000E-6,2.754719
2.260000E-6,2.754563
2.280000E-6,2.781438
2.300000E-6,2.728000
2.320000E-6,2.741281
2.340000E-6,2.714719
2.360000E-6,2.714562
2.380000E-6,2.674719
2.400000E-6,2.688000
2.420000E-6,2.674719
2.440000E-6,2.608000
2.460000E-6,2.648000
2.480000E-6,2.648000
2.500000E-6,2.634562
2.520000E-6,2.594719
2.540000E-6,2.621281
2.560000E-6,2.581438
2.580000E-6,2.594562
2.600000E-6,2.541438
2.620000E-6,2.541281
2.640000E-6,2.528000
2.660000E-6,2.541281
2.680000E-6,2.528000
2.700000E-6,2.501438
2.720000E-6,2.514563
2.740000E-6,2.514719
2.760000E-6,2.461281
2.780000E-6,2.448000
2.800000E-6,2.488000
2.820000E-6,2.461438
2.840000E-6,2.474563
2.860000E-6,2.421438
2.880000E-6,2.434719
2.900000E-6,2.421281
2.920000E-6,2.408000
2.940000E-6,2.394719
2.960000E-6,2.408000
2.980000E-6,2.368000
3.000000E-6,2.381281
3.020000E-6,2.381281
3.040000E-6,2.368000
3.060000E-6,2.341438
3.080000E-6,2.354563
3.100000E-6,2.301438
3.120000E-6,2.341281
3.140000E-6,2.274719
3.160000E-6,2.314563
3.180000E-6,2.274719
3.200000E-6,2.274719
3.220000E-6,2.274563
3.240000E-6,2.248000
3.260000E-6,2.221437
3.280000E-6,2.221281
3.300000E-6,2.208000
3.320000E-6,2.181281
3.340000E-6,2.194719
3.360000E-6,2.168000
3.380000E-6,2.168000
3.400000E-6,2.194719
3.420000E-6,2.154562
3.440000E-6,2.128000
3.460000E-6,2.168000
3.480000E-6,2.128000
3.500000E-6,2.154719
3.520000E-6,2.128000
3.540000E-6,2.114719
3.560000E-6,2.114562
3.580000E-6,2.088000
3.600000E-6,2.074719
3.620000E-6,2.114719
3.640000E-6,2.061281
3.660000E-6,2.074719
3.680000E-6,2.061281
3.700000E-6,2.074719
3.720000E-6,2.061281
3.740000E-6,2.048000
3.760000E-6,2.021281
3.780000E-6,2.034719
3.800000E-6,2.048000
3.820000E-6,2.008000
3.840000E-6,1.954719
3.860000E-6,1.981281
3.880000E-6,1.954719
3.900000E-6,1.941281
3.920000E-6,1.981281
3.940000E-6,1.928000
3.960000E-6,1.968000
3.980000E-6,1.941438
4.000000E-6,1.928000
4.020000E-6,1.901281
4.040000E-6,1.914719
4.060000E-6,1.928000
4.080000E-6,1.874563
4.100000E-6,1.914719
4.120000E-6,1.861281
4.140000E-6,1.848000
4.160000E-6,1.928000
4.180000E-6,1.874719
4.200000E-6,1.861281
4.220000E-6,1.848000
4.240000E-6,1.821438
4.260000E-6,1.874563
4.280000E-6,1.834719
4.300000E-6,1.821281
4.320000E-6,1.808000
4.340000E-6,1.821438
4.360000E-6,1.768000
4.380000E-6,1.781281
4.400000E-6,1.781281
4.420000E-6,1.741437
4.440000E-6,1.794563
4.460000E-6,1.754719
4.480000E-6,1.741281
4.500000E-6,1.754719
4.520000E-6,1.714719
4.540000E-6,1.728000
4.560000E-6,1.741281
4.580000E-6,1.714719
4.600000E-6,1.701281
4.620000E-6,1.714719
4.640000E-6,1.701281
4.660000E-6,1.661281
4.680000E-6,1.634719
4.700000E-6,1.674719
4.720000E-6,1.674562
4.740000E-6,1.648000
4.760000E-6,1.634719
4.780000E-6,1.634719
4.800000E-6,1.621281
4.820000E-6,1.621281
4.840000E-6,1.621438
4.860000E-6,1.634563
4.880000E-6,1.608000
4.900000E-6,1.594719
4.920000E-6,1.621281
4.940000E-6,1.594719
4.960000E-6,1.541281
4.980000E-6,1.594719
5.000000E-6,1.594719
5.020000E-6,1.554563
5.040000E-6,1.554719
5.060000E-6,1.554719
5.080000E-6,1.541281
5.100000E-6,1.581281
5.120000E-6,1.501437
5.140000E-6,1.528000
5.160000E-6,1.501281
5.180000E-6,1.528000
5.200000E-6,1.528000
5.220000E-6,1.501281
5.240000E-6,1.488000
5.260000E-6,1.448000
5.280000E-6,1.474719
5.300000E-6,1.461281
5.320000E-6,1.488000
5.340000E-6,1.474719
5.360000E-6,1.448000
5.380000E-6,1.474719
5.400000E-6,1.461281
5.420000E-6,1.408000
5.440000E-6,1.421281
5.460000E-6,1.421438
5.480000E-6,1.421281
5.500000E-6,1.408000
5.520000E-6,1.448000
5.540000E-6,1.408000
5.560000E-6,1.408000
5.580000E-6,1.394719
5.600000E-6,1.408000
5.620000E-6,1.368000
5.640000E-6,1.354563
5.660000E-6,1.381438
5.680000E-6,1.394562
5.700000E-6,1.368000
5.720000E-6,1.354719
5.740000E-6,1.341281
5.760000E-6,1.354719
5.780000E-6,1.368000
5.800000E-6,1.328000
5.820000E-6,1.314719
5.840000E-6,1.328000
5.860000E-6,1.328000
5.880000E-6,1.328000
5.900000E-6,1.328000
5.920000E-6,1.301281
5.940000E-6,1.314719
5.960000E-6,1.288000
5.980000E-6,1.288000
6.000000E-6,1.288000
6.020000E-6,1.301281
6.040000E-6,1.288000
6.060000E-6,1.248000
6.080000E-6,1.274719
6.100000E-6,1.234563
6.120000E-6,1.274719
6.140000E-6,1.261281
6.160000E-6,1.234719
6.180000E-6,1.234719
6.200000E-6,1.208000
6.220000E-6,1.248000
6.240000E-6,1.261281
6.260000E-6,1.194719
6.280000E-6,1.208000
6.300000E-6,1.208000
6.320000E-6,1.208000
6.340000E-6,1.181281
6.360000E-6,1.181281
6.380000E-6,1.221437
6.400000E-6,1.181281
6.420000E-6,1.208000
6.440000E-6,1.168000
6.460000E-6,1.154719
6.480000E-6,1.208000
6.500000E-6,1.181281
6.520000E-6,1.181281
6.540000E-6,1.168000
6.560000E-6,1.154719
6.580000E-6,1.114719
6.600000E-6,1.154562
6.620000E-6,1.154719
6.640000E-6,1.114719
6.660000E-6,1.101281
6.680000E-6,1.154719
6.700000E-6,1.141281
6.720000E-6,1.101281
6.740000E-6,1.088000
6.760000E-6,1.114719
6.780000E-6,1.101281
6.800000E-6,1.101438
6.820000E-6,1.114563
6.840000E-6,1.101438
6.860000E-6,1.101281
6.880000E-6,1.061281
6.900000E-6,1.114719
6.920000E-6,1.061281
6.940000E-6,1.074719
6.960000E-6,1.074719
6.980000E-6,1.088000
7.000000E-6,1.034563
7.020000E-6,1.008000
7.040000E-6,1.048000
7.060000E-6,1.048000
7.080000E-6,1.061438
7.100000E-6,0.994563
7.120000E-6,1.034719
7.140000E-6,1.034719
7.160000E-6,1.034563
7.180000E-6,1.008000
7.200000E-6,1.021437
7.220000E-6,1.008000
7.240000E-6,1.008000
7.260000E-6,1.021281
7.280000E-6,0.981281
7.300000E-6,0.994719
7.320000E-6,0.954719
7.340000E-6,0.981281
7.360000E-6,0.994719
7.380000E-6,0.968000
7.400000E-6,0.954562
7.420000E-6,0.968000
7.440000E-6,0.941438
7.460000E-6,0.994563
7.480000E-6,0.954719
7.500000E-6,0.954719
7.520000E-6,0.954562
7.540000E-6,0.954719
7.560000E-6,0.954719
7.580000E-6,0.968000
7.600000E-6,0.901281
7.620000E-6,0.928000
7.640000E-6,0.941281
7.660000E-6,0.941438
7.680000E-6,0.914563
7.700000E-6,0.928000
7.720000E-6,0.901438
7.740000E-6,0.941281
7.760000E-6,0.928000
7.780000E-6,0.914719
7.800000E-6,0.901281
7.820000E-6,0.901281
7.840000E-6,0.888000
7.860000E-6,0.874719
7.880000E-6,0.914719
7.900000E-6,0.874563
7.920000E-6,0.901438
7.940000E-6,0.861281
7.960000E-6,0.848000
7.980000E-6,0.874719
8.000000E-6,0.861281
8.020000E-6,0.901281
8.040000E-6,0.834719
8.060000E-6,0.861281
8.080000E-6,0.861437
8.100000E-6,0.834562
8.120000E-6,0.874719
8.140000E-6,0.848000
8.160000E-6,0.848000
8.180000E-6,0.848000
8.200000E-6,0.821281
8.220000E-6,0.861437
8.240000E-6,0.821281
8.260000E-6,0.808000
8.280000E-6,0.808000
8.300000E-6,0.821281
8.320000E-6,0.794719
8.340000E-6,0.808000
8.360000E-6,0.794719
8.380000E-6,0.781281
8.400000E-6,0.848000
8.420000E-6,0.794719
8.440000E-6,0.781281
8.460000E-6,0.794719
8.480000E-6,0.808000
8.500000E-6,0.768000
8.520000E-6,0.794563
8.540000E-6,0.768000
8.560000E-6,0.754719
8.580000E-6,0.781281
8.600000E-6,0.794719
8.620000E-6,0.754719
8.640000E-6,0.754563
8.660000E-6,0.768000
8.680000E-6,0.781438
8.700000E-6,0.768000
8.720000E-6,0.714562
8.740000E-6,0.768000
8.760000E-6,0.741437
8.780000E-6,0.741281
8.800000E-6,0.714719
8.820000E-6,0.728000
8.840000E-6,0.714562
8.860000E-6,0.714719
8.880000E-6,0.741281
8.900000E-6,0.741437
8.920000E-6,0.741281
8.940000E-6,0.701281
8.960000E-6,0.741437
8.980000E-6,0.688000
9.000000E-6,0.714562
9.020000E-6,0.754719
9.040000E-6,0.741281
9.060000E-6,0.728000
9.080000E-6,0.714719
9.100000E-6,0.714719
9.120000E-6,0.714562
9.140000E-6,0.714719
9.160000E-6,0.714719
9.180000E-6,0.688000
9.200000E-6,0.674563
9.220000E-6,0.674719
9.240000E-6,0.674719
9.260000E-6,0.661281
9.280000E-6,0.688000
9.300000E-6,0.674719
9.320000E-6,0.661281
9.340000E-6,0.661281
9.360000E-6,0.661438
9.380000E-6,0.661281
9.400000E-6,0.674719
9.420000E-6,0.661281
9.440000E-6,0.674719
9.460000E-6,0.634563
9.480000E-6,0.661438
9.500000E-6,0.661281
9.520000E-6,0.648000
9.540000E-6,0.661281
9.560000E-6,0.674719
9.580000E-6,0.621281
9.600000E-6,0.648000
9.620000E-6,0.661438
9.640000E-6,0.661281
9.660000E-6,0.634719
9.680000E-6,0.621281
9.700000E-6,0.608000
9.720000E-6,0.634719
9.740000E-6,0.634563
9.760000E-6,0.608000
9.780000E-6,0.594719
9.800000E-6,0.621281
9.820000E-6,0.621437
9.840000E-6,0.608000
9.860000E-6,0.634563
9.880000E-6,0.581438
9.900000E-6,0.608000
9.920000E-6,0.594562
9.940000E-6,0.621437
9.960000E-6,0.594562
9.980000E-6,0.581438
