Time(s),Ch 1  (V),
0.000000,4.103937
5.000000E-8,4.088156
1.000000E-7,4.351906
1.500000E-7,4.240031
2.000000E-7,4.263937
2.500000E-7,4.152063
3.000000E-7,4.183937
3.500000E-7,4.200031
4.000000E-7,4.168000
4.500000E-7,4.160031
5.000000E-7,4.143937
5.500000E-7,4.112063
6.000000E-7,4.040031
6.500000E-7,4.039875
7.000000E-7,4.072063
7.500000E-7,4.040031
8.000000E-7,3.983938
8.500000E-7,3.975969
9.000000E-7,3.928000
9.500000E-7,3.928000
1.000000E-6,3.928000
1.050000E-6,3.896125
1.100000E-6,3.895969
1.150000E-6,3.831906
1.200000E-6,3.832063
1.250000E-6,3.848000
1.300000E-6,3.823937
1.350000E-6,3.784094
1.400000E-6,3.775969
1.450000E-6,3.752063
1.500000E-6,3.743937
1.550000E-6,3.728000
1.600000E-6,3.712063
1.650000E-6,3.688000
1.700000E-6,3.679875
1.750000E-6,3.672063
1.800000E-6,3.623938
1.850000E-6,3.624094
1.900000E-6,3.591906
1.950000E-6,3.608000
2.000000E-6,3.592062
2.050000E-6,3.552062
2.100000E-6,3.575969
2.150000E-6,3.535969
2.200000E-6,3.512062
2.250000E-6,3.503938
2.300000E-6,3.472063
2.350000E-6,3.455969
2.400000E-6,3.440031
2.450000E-6,3.408000
2.500000E-6,3.415969
2.550000E-6,3.375969
2.600000E-6,3.360031
2.650000E-6,3.351906
2.700000E-6,3.368000
2.750000E-6,3.328000
2.800000E-6,3.288156
2.850000E-6,3.303937
2.900000E-6,3.288000
2.950000E-6,3.263937
3.000000E-6,3.248000
3.050000E-6,3.200031
3.100000E-6,3.215969
3.150000E-6,3.208000
3.200000E-6,3.192063
3.250000E-6,3.168000
3.300000E-6,3.143938
3.350000E-6,3.128000
3.400000E-6,3.152062
3.450000E-6,3.103938
3.500000E-6,3.080031
3.550000E-6,3.095969
3.600000E-6,3.064094
3.650000E-6,3.055969
3.700000E-6,3.072062
3.750000E-6,3.055969
3.800000E-6,3.000031
3.850000E-6,3.008000
3.900000E-6,3.015969
3.950000E-6,2.975969
4.000000E-6,2.952063
4.050000E-6,2.935969
4.100000E-6,2.920031
4.150000E-6,2.919875
4.200000E-6,2.912063
4.250000E-6,2.888000
4.300000E-6,2.848000
4.350000E-6,2.848000
4.400000E-6,2.815969
4.450000E-6,2.840031
4.500000E-6,2.800031
4.550000E-6,2.775969
4.600000E-6,2.792063
4.650000E-6,2.735969
4.700000E-6,2.760031
4.750000E-6,2.759875
4.800000E-6,2.704094
4.850000E-6,2.720031
4.900000E-6,2.711906
4.950000E-6,2.680031
5.000000E-6,2.663937
5.050000E-6,2.680031
5.100000E-6,2.648000
5.150000E-6,2.655969
5.200000E-6,2.624094
5.250000E-6,2.639875
5.300000E-6,2.616125
5.350000E-6,2.615969
5.400000E-6,2.591906
5.450000E-6,2.592062
5.500000E-6,2.560031
5.550000E-6,2.551906
5.600000E-6,2.512062
5.650000E-6,2.535969
5.700000E-6,2.495969
5.750000E-6,2.488000
5.800000E-6,2.472062
5.850000E-6,2.432063
5.900000E-6,2.463938
5.950000E-6,2.423938
6.000000E-6,2.416125
6.050000E-6,2.423938
6.100000E-6,2.383938
6.150000E-6,2.408000
6.200000E-6,2.384094
6.250000E-6,2.360031
6.300000E-6,2.368000
6.350000E-6,2.343938
6.400000E-6,2.303937
6.450000E-6,2.320031
6.500000E-6,2.320031
6.550000E-6,2.303937
6.600000E-6,2.288000
6.650000E-6,2.280031
6.700000E-6,2.288000
6.750000E-6,2.240031
6.800000E-6,2.240031
6.850000E-6,2.231906
6.900000E-6,2.224094
6.950000E-6,2.200031
7.000000E-6,2.183937
7.050000E-6,2.208000
7.100000E-6,2.183937
7.150000E-6,2.184094
7.200000E-6,2.168000
7.250000E-6,2.168000
7.300000E-6,2.160031
7.350000E-6,2.143937
7.400000E-6,2.120031
7.450000E-6,2.128000
7.500000E-6,2.120031
7.550000E-6,2.103938
7.600000E-6,2.072062
7.650000E-6,2.071906
7.700000E-6,2.040031
7.750000E-6,2.040031
7.800000E-6,2.031906
7.850000E-6,2.048000
7.900000E-6,2.032062
7.950000E-6,2.015969
8.000000E-6,1.984094
8.050000E-6,1.999875
8.100000E-6,2.008000
8.150000E-6,1.976125
8.200000E-6,1.951906
8.250000E-6,1.968000
8.300000E-6,1.935969
8.350000E-6,1.936125
8.400000E-6,1.935969
8.450000E-6,1.903938
8.500000E-6,1.928000
8.550000E-6,1.888000
8.600000E-6,1.880031
8.650000E-6,1.912062
8.700000E-6,1.911906
8.750000E-6,1.864094
8.800000E-6,1.895969
8.850000E-6,1.888000
8.900000E-6,1.840031
8.950000E-6,1.848000
9.000000E-6,1.815969
9.050000E-6,1.815969
9.100000E-6,1.840031
9.150000E-6,1.823937
9.200000E-6,1.800031
9.250000E-6,1.760031
9.300000E-6,1.800031
9.350000E-6,1.751906
9.400000E-6,1.784094
9.450000E-6,1.735969
9.500000E-6,1.728000
9.550000E-6,1.728000
9.600000E-6,1.680031
9.650000E-6,1.695969
9.700000E-6,1.728000
9.750000E-6,1.672063
9.800000E-6,1.695969
9.850000E-6,1.688000
9.900000E-6,1.655969
9.950000E-6,1.655969
1.000000E-5,1.648000
1.005000E-5,1.655969
1.010000E-5,1.656125
1.015000E-5,1.639875
1.020000E-5,1.624094
1.025000E-5,1.671906
1.030000E-5,1.600031
1.035000E-5,1.623938
1.040000E-5,1.632062
1.045000E-5,1.583937
1.050000E-5,1.608000
1.055000E-5,1.568000
1.060000E-5,1.576125
1.065000E-5,1.559875
1.070000E-5,1.520031
1.075000E-5,1.552063
1.080000E-5,1.520031
1.085000E-5,1.535969
1.090000E-5,1.528000
1.095000E-5,1.495969
1.100000E-5,1.528000
1.105000E-5,1.480031
1.110000E-5,1.471906
1.115000E-5,1.504094
1.120000E-5,1.463938
1.125000E-5,1.488000
1.130000E-5,1.480031
1.135000E-5,1.440031
1.140000E-5,1.471906
1.145000E-5,1.464094
1.150000E-5,1.448000
1.155000E-5,1.423938
1.160000E-5,1.440031
1.165000E-5,1.448000
1.170000E-5,1.392062
1.175000E-5,1.415969
1.180000E-5,1.391906
1.185000E-5,1.400031
1.190000E-5,1.384094
1.195000E-5,1.375969
1.200000E-5,1.391906
1.205000E-5,1.392062
1.210000E-5,1.368000
1.215000E-5,1.360031
1.220000E-5,1.375969
1.225000E-5,1.343938
1.230000E-5,1.336125
1.235000E-5,1.319875
1.240000E-5,1.320031
1.245000E-5,1.295969
1.250000E-5,1.288000
1.255000E-5,1.280031
1.260000E-5,1.320031
1.265000E-5,1.280031
1.270000E-5,1.271906
1.275000E-5,1.264094
1.280000E-5,1.263937
1.285000E-5,1.255969
1.290000E-5,1.256125
1.295000E-5,1.223938
1.300000E-5,1.232063
1.305000E-5,1.215969
1.310000E-5,1.240031
1.315000E-5,1.215969
1.320000E-5,1.183938
1.325000E-5,1.184094
1.330000E-5,1.183938
1.335000E-5,1.192063
1.340000E-5,1.183938
1.345000E-5,1.183938
1.350000E-5,1.192063
1.355000E-5,1.175969
1.360000E-5,1.208000
1.365000E-5,1.200031
1.370000E-5,1.183938
1.375000E-5,1.192063
1.380000E-5,1.192063
1.385000E-5,1.151906
1.390000E-5,1.160031
1.395000E-5,1.160031
1.400000E-5,1.160031
1.405000E-5,1.143938
1.410000E-5,1.135969
1.415000E-5,1.135969
1.420000E-5,1.120031
1.425000E-5,1.104094
1.430000E-5,1.079875
1.435000E-5,1.136125
1.440000E-5,1.095969
1.445000E-5,1.088000
1.450000E-5,1.111906
1.455000E-5,1.064094
1.460000E-5,1.063937
1.465000E-5,1.080031
1.470000E-5,1.040031
1.475000E-5,1.048000
1.480000E-5,1.080031
1.485000E-5,1.023937
1.490000E-5,1.032063
1.495000E-5,1.055969
1.500000E-5,1.040031
1.505000E-5,1.039875
1.510000E-5,1.032063
1.515000E-5,1.015969
1.520000E-5,1.024094
1.525000E-5,1.031906
1.530000E-5,1.000031
1.535000E-5,1.023937
1.540000E-5,1.000031
1.545000E-5,0.984094
1.550000E-5,0.999875
1.555000E-5,0.984094
1.560000E-5,0.975969
1.565000E-5,0.952063
1.570000E-5,0.983938
1.575000E-5,0.960031
1.580000E-5,0.951906
1.585000E-5,0.960031
1.590000E-5,0.928000
1.595000E-5,0.960031
1.600000E-5,0.935969
1.605000E-5,0.920031
1.610000E-5,0.943937
1.615000E-5,0.928000
1.620000E-5,0.928000
1.625000E-5,0.936125
1.630000E-5,0.903938
1.635000E-5,0.903938
1.640000E-5,0.928000
1.645000E-5,0.904094
1.650000E-5,0.895969
1.655000E-5,0.888000
1.660000E-5,0.912062
1.665000E-5,0.888000
1.670000E-5,0.911906
1.675000E-5,0.872062
1.680000E-5,0.895969
1.685000E-5,0.855969
1.690000E-5,0.864094
1.695000E-5,0.879875
1.700000E-5,0.880031
1.705000E-5,0.872062
1.710000E-5,0.855969
1.715000E-5,0.840031
1.720000E-5,0.848000
1.725000E-5,0.848000
1.730000E-5,0.831906
1.735000E-5,0.824094
1.740000E-5,0.815969
1.745000E-5,0.823937
1.750000E-5,0.816125
1.755000E-5,0.815969
1.760000E-5,0.800031
1.765000E-5,0.815969
1.770000E-5,0.808000
1.775000E-5,0.808000
1.780000E-5,0.815969
1.785000E-5,0.815969
1.790000E-5,0.784094
1.795000E-5,0.783938
1.800000E-5,0.808000
1.805000E-5,0.768000
1.810000E-5,0.768000
1.815000E-5,0.760031
1.820000E-5,0.760031
1.825000E-5,0.759875
1.830000E-5,0.776125
1.835000E-5,0.759875
1.840000E-5,0.800031
1.845000E-5,0.760031
1.850000E-5,0.760031
1.855000E-5,0.800031
1.860000E-5,0.783938
1.865000E-5,0.743938
1.870000E-5,0.760031
1.875000E-5,0.775969
1.880000E-5,0.720031
1.885000E-5,0.752062
1.890000E-5,0.728000
1.895000E-5,0.720031
1.900000E-5,0.728000
1.905000E-5,0.719875
1.910000E-5,0.704094
1.915000E-5,0.711906
1.920000E-5,0.704094
1.925000E-5,0.680031
1.930000E-5,0.711906
1.935000E-5,0.672063
1.940000E-5,0.680031
1.945000E-5,0.695969
1.950000E-5,0.680031
1.955000E-5,0.679875
1.960000E-5,0.696125
1.965000E-5,0.671906
1.970000E-5,0.680031
1.975000E-5,0.672063
1.980000E-5,0.679875
1.985000E-5,0.664094
1.990000E-5,0.680031
1.995000E-5,0.663938
2.000000E-5,0.663938
2.005000E-5,0.656125
2.010000E-5,0.648000
2.015000E-5,0.663938
2.020000E-5,0.648000
2.025000E-5,0.640031
2.030000E-5,0.663938
2.035000E-5,0.664094
2.040000E-5,0.631906
2.045000E-5,0.624094
2.050000E-5,0.615969
2.055000E-5,0.615969
2.060000E-5,0.608000
2.065000E-5,0.608000
2.070000E-5,0.600031
2.075000E-5,0.608000
2.080000E-5,0.615969
2.085000E-5,0.600031
2.090000E-5,0.615969
2.095000E-5,0.592063
2.100000E-5,0.575969
2.105000E-5,0.591906
2.110000E-5,0.584094
2.115000E-5,0.591906
2.120000E-5,0.576125
2.125000E-5,0.568000
2.130000E-5,0.583937
2.135000E-5,0.592063
2.140000E-5,0.559875
2.145000E-5,0.576125
2.150000E-5,0.559875
2.155000E-5,0.576125
2.160000E-5,0.551906
2.165000E-5,0.552063
2.170000E-5,0.543937
2.175000E-5,0.568000
2.180000E-5,0.552063
2.185000E-5,0.551906
2.190000E-5,0.568000
2.195000E-5,0.560031
2.200000E-5,0.560031
2.205000E-5,0.552063
2.210000E-5,0.559875
2.215000E-5,0.535969
2.220000E-5,0.552063
2.225000E-5,0.552063
2.230000E-5,0.543937
2.235000E-5,0.535969
2.240000E-5,0.536125
2.245000E-5,0.519875
2.250000E-5,0.576125
2.255000E-5,0.519875
2.260000E-5,0.544094
2.265000E-5,0.543937
2.270000E-5,0.535969
2.275000E-5,0.504094
2.280000E-5,0.528000
2.285000E-5,0.495969
2.290000E-5,0.503938
2.295000E-5,0.504094
2.300000E-5,0.503938
2.305000E-5,0.520031
2.310000E-5,0.503938
2.315000E-5,0.496125
2.320000E-5,0.495969
2.325000E-5,0.480031
2.330000E-5,0.503938
2.335000E-5,0.512062
2.340000E-5,0.488000
2.345000E-5,0.503938
2.350000E-5,0.503938
2.355000E-5,0.512062
2.360000E-5,0.488000
2.365000E-5,0.488000
2.370000E-5,0.512062
2.375000E-5,0.455969
2.380000E-5,0.495969
2.385000E-5,0.503938
2.390000E-5,0.464094
2.395000E-5,0.463938
2.400000E-5,0.464094
2.405000E-5,0.455969
2.410000E-5,0.448000
2.415000E-5,0.455969
2.420000E-5,0.448000
2.425000E-5,0.472062
2.430000E-5,0.439875
2.435000E-5,0.416125
2.440000E-5,0.448000
2.445000E-5,0.431906
2.450000E-5,0.424094
2.455000E-5,0.448000
2.460000E-5,0.423938
2.465000E-5,0.432063
2.470000E-5,0.439875
2.475000E-5,0.432063
2.480000E-5,0.423938
2.485000E-5,0.448000
2.490000E-5,0.432063
2.495000E-5,0.423938
