Time(s),Ch 1  (V),
0.000000,4.558000
1.000000E-8,4.558000
2.000000E-8,4.288000
3.000000E-8,4.238000
4.000000E-8,3.818000
5.000000E-8,3.548000
6.000000E-8,4.258000
7.000000E-8,4.568000
8.000000E-8,4.148000
9.000000E-8,4.178000
1.000000E-7,3.998000
1.100000E-7,3.548000
1.200000E-7,3.878000
1.300000E-7,4.258000
1.400000E-7,3.978000
1.500000E-7,4.088000
1.600000E-7,3.988000
1.700000E-7,3.708000
1.800000E-7,3.808000
1.900000E-7,3.938000
2.000000E-7,3.828000
2.100000E-7,3.878000
2.200000E-7,3.898000
2.300000E-7,3.708000
2.400000E-7,3.698000
2.500000E-7,3.758000
2.600000E-7,3.688000
2.700000E-7,3.668000
2.800000E-7,3.728000
2.900000E-7,3.648000
3.000000E-7,3.658000
3.100000E-7,3.708000
3.200000E-7,3.608000
3.300000E-7,3.538000
3.400000E-7,3.538000
3.500000E-7,3.538000
3.600000E-7,3.588000
3.700000E-7,3.618000
3.800000E-7,3.558000
3.900000E-7,3.458000
4.000000E-7,3.358000
4.100000E-7,3.378000
4.200000E-7,3.478000
4.300000E-7,3.498000
4.400000E-7,3.438000
4.500000E-7,3.368000
4.600000E-7,3.298000
4.700000E-7,3.248000
4.800000E-7,3.288000
4.900000E-7,3.348000
5.000000E-7,3.348000
5.100000E-7,3.288000
5.200000E-7,3.238000
5.300000E-7,3.208000
5.400000E-7,3.178000
5.500000E-7,3.178000
5.600000E-7,3.248000
5.700000E-7,3.188000
5.800000E-7,3.118000
5.900000E-7,3.108000
6.000000E-7,3.088000
6.100000E-7,3.098000
6.200000E-7,3.118000
6.300000E-7,3.088000
6.400000E-7,3.018000
6.500000E-7,2.988000
6.600000E-7,3.018000
6.700000E-7,2.978000
6.800000E-7,2.988000
6.900000E-7,2.968000
7.000000E-7,2.958000
7.100000E-7,2.938000
7.200000E-7,2.908000
7.300000E-7,2.898000
7.400000E-7,2.888000
7.500000E-7,2.878000
7.600000E-7,2.898000
7.700000E-7,2.818000
7.800000E-7,2.798000
7.900000E-7,2.818000
8.000000E-7,2.818000
8.100000E-7,2.788000
8.200000E-7,2.718000
8.300000E-7,2.738000
8.400000E-7,2.698000
8.500000E-7,2.698000
8.600000E-7,2.718000
8.700000E-7,2.688000
8.800000E-7,2.668000
8.900000E-7,2.668000
9.000000E-7,2.648000
9.100000E-7,2.608000
9.200000E-7,2.608000
9.300000E-7,2.608000
9.400000E-7,2.608000
9.500000E-7,2.538000
9.600000E-7,2.558000
9.700000E-7,2.548000
9.800000E-7,2.538000
9.900000E-7,2.558000
1.000000E-6,2.488000
1.010000E-6,2.468000
1.020000E-6,2.448000
1.030000E-6,2.448000
1.040000E-6,2.458000
1.050000E-6,2.418000
1.060000E-6,2.438000
1.070000E-6,2.408000
1.080000E-6,2.388000
1.090000E-6,2.398000
1.100000E-6,2.388000
1.110000E-6,2.348000
1.120000E-6,2.338000
1.130000E-6,2.318000
1.140000E-6,2.308000
1.150000E-6,2.328000
1.160000E-6,2.268000
1.170000E-6,2.298000
1.180000E-6,2.248000
1.190000E-6,2.228000
1.200000E-6,2.228000
1.210000E-6,2.238000
1.220000E-6,2.228000
1.230000E-6,2.218000
1.240000E-6,2.198000
1.250000E-6,2.178000
1.260000E-6,2.138000
1.270000E-6,2.148000
1.280000E-6,2.148000
1.290000E-6,2.158000
1.300000E-6,2.128000
1.310000E-6,2.118000
1.320000E-6,2.078000
1.330000E-6,2.098000
1.340000E-6,2.038000
1.350000E-6,2.068000
1.360000E-6,2.068000
1.370000E-6,2.058000
1.380000E-6,2.038000
1.390000E-6,2.008000
1.400000E-6,1.998000
1.410000E-6,2.028000
1.420000E-6,1.978000
1.430000E-6,1.948000
1.440000E-6,1.948000
1.450000E-6,1.938000
1.460000E-6,1.948000
1.470000E-6,1.958000
1.480000E-6,1.928000
1.490000E-6,1.868000
1.500000E-6,1.898000
1.510000E-6,1.878000
1.520000E-6,1.898000
1.530000E-6,1.848000
1.540000E-6,1.838000
1.550000E-6,1.868000
1.560000E-6,1.838000
1.570000E-6,1.818000
1.580000E-6,1.818000
1.590000E-6,1.818000
1.600000E-6,1.798000
1.610000E-6,1.798000
1.620000E-6,1.778000
1.630000E-6,1.738000
1.640000E-6,1.748000
1.650000E-6,1.768000
1.660000E-6,1.748000
1.670000E-6,1.728000
1.680000E-6,1.688000
1.690000E-6,1.718000
1.700000E-6,1.738000
1.710000E-6,1.708000
1.720000E-6,1.678000
1.730000E-6,1.688000
1.740000E-6,1.668000
1.750000E-6,1.698000
1.760000E-6,1.638000
1.770000E-6,1.628000
1.780000E-6,1.658000
1.790000E-6,1.638000
1.800000E-6,1.628000
1.810000E-6,1.618000
1.820000E-6,1.578000
1.830000E-6,1.578000
1.840000E-6,1.568000
1.850000E-6,1.558000
1.860000E-6,1.528000
1.870000E-6,1.538000
1.880000E-6,1.548000
1.890000E-6,1.528000
1.900000E-6,1.538000
1.910000E-6,1.518000
1.920000E-6,1.538000
1.930000E-6,1.508000
1.940000E-6,1.498000
1.950000E-6,1.488000
1.960000E-6,1.458000
1.970000E-6,1.478000
1.980000E-6,1.508000
1.990000E-6,1.458000
2.000000E-6,1.448000
2.010000E-6,1.428000
2.020000E-6,1.418000
2.030000E-6,1.428000
2.040000E-6,1.408000
2.050000E-6,1.398000
2.060000E-6,1.408000
2.070000E-6,1.358000
2.080000E-6,1.408000
2.090000E-6,1.398000
2.100000E-6,1.368000
2.110000E-6,1.358000
2.120000E-6,1.348000
2.130000E-6,1.368000
2.140000E-6,1.348000
2.150000E-6,1.318000
2.160000E-6,1.328000
2.170000E-6,1.328000
2.180000E-6,1.318000
2.190000E-6,1.298000
2.200000E-6,1.298000
2.210000E-6,1.298000
2.220000E-6,1.278000
2.230000E-6,1.268000
2.240000E-6,1.268000
2.250000E-6,1.248000
2.260000E-6,1.268000
2.270000E-6,1.248000
2.280000E-6,1.258000
2.290000E-6,1.218000
2.300000E-6,1.238000
2.310000E-6,1.258000
2.320000E-6,1.218000
2.330000E-6,1.208000
2.340000E-6,1.218000
2.350000E-6,1.238000
2.360000E-6,1.188000
2.370000E-6,1.188000
2.380000E-6,1.148000
2.390000E-6,1.178000
2.400000E-6,1.188000
2.410000E-6,1.168000
2.420000E-6,1.138000
2.430000E-6,1.138000
2.440000E-6,1.158000
2.450000E-6,1.148000
2.460000E-6,1.148000
2.470000E-6,1.108000
2.480000E-6,1.108000
2.490000E-6,1.098000
2.500000E-6,1.108000
2.510000E-6,1.128000
2.520000E-6,1.108000
2.530000E-6,1.088000
2.540000E-6,1.118000
2.550000E-6,1.078000
2.560000E-6,1.068000
2.570000E-6,1.078000
2.580000E-6,1.048000
2.590000E-6,1.038000
2.600000E-6,1.058000
2.610000E-6,1.068000
2.620000E-6,1.018000
2.630000E-6,1.038000
2.640000E-6,1.018000
2.650000E-6,1.018000
2.660000E-6,0.998000
2.670000E-6,0.978000
2.680000E-6,1.038000
2.690000E-6,1.018000
2.700000E-6,1.018000
2.710000E-6,0.998000
2.720000E-6,0.968000
2.730000E-6,0.968000
2.740000E-6,1.018000
2.750000E-6,0.978000
2.760000E-6,0.938000
2.770000E-6,0.958000
2.780000E-6,0.948000
2.790000E-6,0.948000
2.800000E-6,0.918000
2.810000E-6,0.938000
2.820000E-6,0.928000
2.830000E-6,0.928000
2.840000E-6,0.938000
2.850000E-6,0.898000
2.860000E-6,0.908000
2.870000E-6,0.898000
2.880000E-6,0.898000
2.890000E-6,0.888000
2.900000E-6,0.888000
2.910000E-6,0.898000
2.920000E-6,0.898000
2.930000E-6,0.878000
2.940000E-6,0.878000
2.950000E-6,0.878000
2.960000E-6,0.878000
2.970000E-6,0.898000
2.980000E-6,0.888000
2.990000E-6,0.838000
3.000000E-6,0.838000
3.010000E-6,0.818000
3.020000E-6,0.838000
3.030000E-6,0.828000
3.040000E-6,0.828000
3.050000E-6,0.838000
3.060000E-6,0.828000
3.070000E-6,0.838000
3.080000E-6,0.828000
3.090000E-6,0.808000
3.100000E-6,0.808000
3.110000E-6,0.808000
3.120000E-6,0.808000
3.130000E-6,0.808000
3.140000E-6,0.768000
3.150000E-6,0.808000
3.160000E-6,0.778000
3.170000E-6,0.778000
3.180000E-6,0.758000
3.190000E-6,0.748000
3.200000E-6,0.788000
3.210000E-6,0.758000
3.220000E-6,0.728000
3.230000E-6,0.738000
3.240000E-6,0.718000
3.250000E-6,0.738000
3.260000E-6,0.718000
3.270000E-6,0.738000
3.280000E-6,0.748000
3.290000E-6,0.728000
3.300000E-6,0.748000
3.310000E-6,0.708000
3.320000E-6,0.698000
3.330000E-6,0.708000
3.340000E-6,0.718000
3.350000E-6,0.718000
3.360000E-6,0.698000
3.370000E-6,0.688000
3.380000E-6,0.718000
3.390000E-6,0.728000
3.400000E-6,0.698000
3.410000E-6,0.638000
3.420000E-6,0.698000
3.430000E-6,0.688000
3.440000E-6,0.698000
3.450000E-6,0.698000
3.460000E-6,0.688000
3.470000E-6,0.648000
3.480000E-6,0.668000
3.490000E-6,0.668000
3.500000E-6,0.708000
3.510000E-6,0.648000
3.520000E-6,0.618000
3.530000E-6,0.668000
3.540000E-6,0.658000
3.550000E-6,0.638000
3.560000E-6,0.628000
3.570000E-6,0.628000
3.580000E-6,0.638000
3.590000E-6,0.658000
3.600000E-6,0.628000
3.610000E-6,0.608000
3.620000E-6,0.608000
3.630000E-6,0.618000
3.640000E-6,0.598000
3.650000E-6,0.598000
3.660000E-6,0.598156
3.670000E-6,0.627844
3.680000E-6,0.618000
3.690000E-6,0.618000
3.700000E-6,0.598000
3.710000E-6,0.608000
3.720000E-6,0.578000
3.730000E-6,0.638000
3.740000E-6,0.578000
3.750000E-6,0.588156
3.760000E-6,0.588000
3.770000E-6,0.567844
3.780000E-6,0.588000
3.790000E-6,0.578156
3.800000E-6,0.587844
3.810000E-6,0.538000
3.820000E-6,0.558156
3.830000E-6,0.568000
3.840000E-6,0.538000
3.850000E-6,0.518000
3.860000E-6,0.537844
3.870000E-6,0.558156
3.880000E-6,0.517844
3.890000E-6,0.548000
3.900000E-6,0.528000
3.910000E-6,0.548156
3.920000E-6,0.538000
3.930000E-6,0.537844
3.940000E-6,0.528000
3.950000E-6,0.518000
3.960000E-6,0.548000
3.970000E-6,0.528000
3.980000E-6,0.518156
3.990000E-6,0.497844
4.000000E-6,0.518156
4.010000E-6,0.518000
4.020000E-6,0.517844
4.030000E-6,0.518000
4.040000E-6,0.518156
4.050000E-6,0.498000
4.060000E-6,0.527844
4.070000E-6,0.498000
4.080000E-6,0.478000
4.090000E-6,0.498000
4.100000E-6,0.478000
4.110000E-6,0.478000
4.120000E-6,0.498000
4.130000E-6,0.478156
4.140000E-6,0.467844
4.150000E-6,0.478156
4.160000E-6,0.467844
4.170000E-6,0.458000
4.180000E-6,0.478156
4.190000E-6,0.497844
4.200000E-6,0.468000
4.210000E-6,0.468156
4.220000E-6,0.467844
4.230000E-6,0.468000
4.240000E-6,0.468000
4.250000E-6,0.448156
4.260000E-6,0.467844
4.270000E-6,0.468000
4.280000E-6,0.438000
4.290000E-6,0.468000
4.300000E-6,0.458000
4.310000E-6,0.428000
4.320000E-6,0.438000
4.330000E-6,0.448000
4.340000E-6,0.448000
4.350000E-6,0.438000
4.360000E-6,0.398000
4.370000E-6,0.438000
4.380000E-6,0.468000
4.390000E-6,0.448000
4.400000E-6,0.418000
4.410000E-6,0.418000
4.420000E-6,0.408000
4.430000E-6,0.438000
4.440000E-6,0.428000
4.450000E-6,0.388000
4.460000E-6,0.398000
4.470000E-6,0.398000
4.480000E-6,0.398000
4.490000E-6,0.418000
4.500000E-6,0.438000
4.510000E-6,0.408000
4.520000E-6,0.428000
4.530000E-6,0.408000
4.540000E-6,0.398000
4.550000E-6,0.408000
4.560000E-6,0.398000
4.570000E-6,0.358156
4.580000E-6,0.427844
4.590000E-6,0.388156
4.600000E-6,0.377844
4.610000E-6,0.408000
4.620000E-6,0.408156
4.630000E-6,0.368000
4.640000E-6,0.357844
4.650000E-6,0.368000
4.660000E-6,0.398000
4.670000E-6,0.378156
4.680000E-6,0.377844
4.690000E-6,0.378000
4.700000E-6,0.358156
4.710000E-6,0.358000
4.720000E-6,0.407844
4.730000E-6,0.358000
4.740000E-6,0.348156
4.750000E-6,0.367844
4.760000E-6,0.348156
4.770000E-6,0.368000
4.780000E-6,0.337844
4.790000E-6,0.358156
4.800000E-6,0.357844
4.810000E-6,0.338156
4.820000E-6,0.357844
4.830000E-6,0.358156
4.840000E-6,0.347844
4.850000E-6,0.358000
4.860000E-6,0.348000
4.870000E-6,0.348000
4.880000E-6,0.348000
4.890000E-6,0.338000
4.900000E-6,0.358000
4.910000E-6,0.338000
4.920000E-6,0.348000
4.930000E-6,0.338156
4.940000E-6,0.347844
4.950000E-6,0.358000
4.960000E-6,0.328000
4.970000E-6,0.348000
4.980000E-6,0.318000
4.990000E-6,0.308000
