Time(s),Ch 1  (V),
0.000000,4.128000
2.000000E-8,4.518000
4.000000E-8,4.188000
6.000000E-8,3.758000
8.000000E-8,4.468000
1.000000E-7,4.238000
1.200000E-7,3.768000
1.400000E-7,4.228000
1.600000E-7,4.178000
1.800000E-7,3.868000
2.000000E-7,4.018000
2.200000E-7,4.048000
2.400000E-7,3.868000
2.600000E-7,3.898000
2.800000E-7,3.858000
3.000000E-7,3.888000
3.200000E-7,3.878000
3.400000E-7,3.748000
3.600000E-7,3.828000
3.800000E-7,3.808000
4.000000E-7,3.708000
4.200000E-7,3.688000
4.400000E-7,3.748000
4.600000E-7,3.638000
4.800000E-7,3.608000
5.000000E-7,3.668000
5.200000E-7,3.558000
5.400000E-7,3.558000
5.600000E-7,3.558000
5.800000E-7,3.498000
6.000000E-7,3.508000
6.200000E-7,3.438000
6.400000E-7,3.448000
6.600000E-7,3.388000
6.800000E-7,3.418000
7.000000E-7,3.378000
7.200000E-7,3.318000
7.400000E-7,3.338000
7.600000E-7,3.288000
7.800000E-7,3.268000
8.000000E-7,3.258000
8.200000E-7,3.218000
8.400000E-7,3.208000
8.600000E-7,3.148000
8.800000E-7,3.148000
9.000000E-7,3.158000
9.200000E-7,3.108000
9.400000E-7,3.088000
9.600000E-7,3.058000
9.800000E-7,3.028000
1.000000E-6,2.998000
1.020000E-6,2.978000
1.040000E-6,2.998000
1.060000E-6,2.978000
1.080000E-6,2.938000
1.100000E-6,2.918000
1.120000E-6,2.908000
1.140000E-6,2.888000
1.160000E-6,2.868000
1.180000E-6,2.828000
1.200000E-6,2.828000
1.220000E-6,2.808000
1.240000E-6,2.758000
1.260000E-6,2.758000
1.280000E-6,2.748000
1.300000E-6,2.728000
1.320000E-6,2.718000
1.340000E-6,2.678000
1.360000E-6,2.678000
1.380000E-6,2.648000
1.400000E-6,2.638000
1.420000E-6,2.608000
1.440000E-6,2.608000
1.460000E-6,2.578000
1.480000E-6,2.538000
1.500000E-6,2.528000
1.520000E-6,2.508000
1.540000E-6,2.498000
1.560000E-6,2.458000
1.580000E-6,2.478000
1.600000E-6,2.438000
1.620000E-6,2.448000
1.640000E-6,2.418000
1.660000E-6,2.398000
1.680000E-6,2.388000
1.700000E-6,2.358000
1.720000E-6,2.358000
1.740000E-6,2.318000
1.760000E-6,2.308000
1.780000E-6,2.288000
1.800000E-6,2.278000
1.820000E-6,2.288000
1.840000E-6,2.218000
1.860000E-6,2.228000
1.880000E-6,2.188000
1.900000E-6,2.188000
1.920000E-6,2.178000
1.940000E-6,2.118000
1.960000E-6,2.158000
1.980000E-6,2.138000
2.000000E-6,2.148000
2.020000E-6,2.128000
2.040000E-6,2.078000
2.060000E-6,2.058000
2.080000E-6,2.068000
2.100000E-6,2.048000
2.120000E-6,2.038000
2.140000E-6,2.018000
2.160000E-6,2.008000
2.180000E-6,2.008000
2.200000E-6,1.998000
2.220000E-6,1.938000
2.240000E-6,1.958000
2.260000E-6,1.928000
2.280000E-6,1.958000
2.300000E-6,1.898000
2.320000E-6,1.868000
2.340000E-6,1.868000
2.360000E-6,1.868000
2.380000E-6,1.868000
2.400000E-6,1.828000
2.420000E-6,1.828000
2.440000E-6,1.808000
2.460000E-6,1.788000
2.480000E-6,1.788000
2.500000E-6,1.768000
2.520000E-6,1.768000
2.540000E-6,1.738000
2.560000E-6,1.738000
2.580000E-6,1.768000
2.600000E-6,1.688000
2.620000E-6,1.718000
2.640000E-6,1.678000
2.660000E-6,1.698000
2.680000E-6,1.678000
2.700000E-6,1.648000
2.720000E-6,1.638000
2.740000E-6,1.628000
2.760000E-6,1.648000
2.780000E-6,1.628000
2.800000E-6,1.588000
2.820000E-6,1.568000
2.840000E-6,1.548000
2.860000E-6,1.558000
2.880000E-6,1.568000
2.900000E-6,1.528000
2.920000E-6,1.518000
2.940000E-6,1.508000
2.960000E-6,1.518000
2.980000E-6,1.498000
3.000000E-6,1.458000
3.020000E-6,1.478000
3.040000E-6,1.488000
3.060000E-6,1.448000
3.080000E-6,1.438000
3.100000E-6,1.428000
3.120000E-6,1.438000
3.140000E-6,1.448000
3.160000E-6,1.408000
3.180000E-6,1.408000
3.200000E-6,1.388000
3.220000E-6,1.368000
3.240000E-6,1.348000
3.260000E-6,1.358000
3.280000E-6,1.348000
3.300000E-6,1.338000
3.320000E-6,1.328000
3.340000E-6,1.348000
3.360000E-6,1.328000
3.380000E-6,1.298000
3.400000E-6,1.278000
3.420000E-6,1.258000
3.440000E-6,1.248000
3.460000E-6,1.258000
3.480000E-6,1.238000
3.500000E-6,1.258000
3.520000E-6,1.238000
3.540000E-6,1.238000
3.560000E-6,1.198000
3.580000E-6,1.218000
3.600000E-6,1.218000
3.620000E-6,1.188000
3.640000E-6,1.168000
3.660000E-6,1.188000
3.680000E-6,1.138000
3.700000E-6,1.178000
3.720000E-6,1.138000
3.740000E-6,1.138000
3.760000E-6,1.128000
3.780000E-6,1.098000
3.800000E-6,1.158000
3.820000E-6,1.098000
3.840000E-6,1.128000
3.860000E-6,1.088000
3.880000E-6,1.098000
3.900000E-6,1.088000
3.920000E-6,1.028000
3.940000E-6,1.088000
3.960000E-6,1.078000
3.980000E-6,1.058000
4.000000E-6,1.048000
4.020000E-6,1.048000
4.040000E-6,1.028000
4.060000E-6,1.008000
4.080000E-6,1.028000
4.100000E-6,1.038000
4.120000E-6,0.998000
4.140000E-6,0.988000
4.160000E-6,1.018000
4.180000E-6,0.968000
4.200000E-6,0.968000
4.220000E-6,0.958000
4.240000E-6,0.958000
4.260000E-6,0.948000
4.280000E-6,0.958000
4.300000E-6,0.938000
4.320000E-6,0.948000
4.340000E-6,0.948000
4.360000E-6,0.958000
4.380000E-6,0.928000
4.400000E-6,0.938000
4.420000E-6,0.908000
4.440000E-6,0.898000
4.460000E-6,0.908000
4.480000E-6,0.868000
4.500000E-6,0.898000
4.520000E-6,0.878000
4.540000E-6,0.858000
4.560000E-6,0.908000
4.580000E-6,0.838000
4.600000E-6,0.868000
4.620000E-6,0.838000
4.640000E-6,0.838000
4.660000E-6,0.838000
4.680000E-6,0.828000
4.700000E-6,0.828000
4.720000E-6,0.808000
4.740000E-6,0.808000
4.760000E-6,0.848000
4.780000E-6,0.758000
4.800000E-6,0.788000
4.820000E-6,0.768000
4.840000E-6,0.798000
4.860000E-6,0.808000
4.880000E-6,0.748000
4.900000E-6,0.768000
4.920000E-6,0.768000
4.940000E-6,0.758000
4.960000E-6,0.738000
4.980000E-6,0.748000
5.000000E-6,0.748000
5.020000E-6,0.728000
5.040000E-6,0.748000
5.060000E-6,0.738000
5.080000E-6,0.698000
5.100000E-6,0.738000
5.120000E-6,0.718000
5.140000E-6,0.708000
5.160000E-6,0.698000
5.180000E-6,0.708000
5.200000E-6,0.708000
5.220000E-6,0.678000
5.240000E-6,0.718000
5.260000E-6,0.688000
5.280000E-6,0.668000
5.300000E-6,0.678000
5.320000E-6,0.688000
5.340000E-6,0.638000
5.360000E-6,0.668000
5.380000E-6,0.658000
5.400000E-6,0.638000
5.420000E-6,0.638000
5.440000E-6,0.658000
5.460000E-6,0.648000
5.480000E-6,0.658000
5.500000E-6,0.618000
5.520000E-6,0.648000
5.540000E-6,0.618000
5.560000E-6,0.628000
5.580000E-6,0.618000
5.600000E-6,0.588000
5.620000E-6,0.618000
5.640000E-6,0.588000
5.660000E-6,0.588000
5.680000E-6,0.608000
5.700000E-6,0.598000
5.720000E-6,0.608000
5.740000E-6,0.568000
5.760000E-6,0.608000
5.780000E-6,0.618000
5.800000E-6,0.578000
5.820000E-6,0.558000
5.840000E-6,0.548000
5.860000E-6,0.548000
5.880000E-6,0.538000
5.900000E-6,0.518000
5.920000E-6,0.568000
5.940000E-6,0.548000
5.960000E-6,0.568000
5.980000E-6,0.568000
6.000000E-6,0.528000
6.020000E-6,0.548000
6.040000E-6,0.518000
6.060000E-6,0.538000
6.080000E-6,0.538000
6.100000E-6,0.548000
6.120000E-6,0.538000
6.140000E-6,0.508000
6.160000E-6,0.548000
6.180000E-6,0.488000
6.200000E-6,0.508000
6.220000E-6,0.498000
6.240000E-6,0.498000
6.260000E-6,0.458000
6.280000E-6,0.488000
6.300000E-6,0.488000
6.320000E-6,0.488000
6.340000E-6,0.508000
6.360000E-6,0.468000
6.380000E-6,0.478000
6.400000E-6,0.488000
6.420000E-6,0.458000
6.440000E-6,0.478000
6.460000E-6,0.428000
6.480000E-6,0.478000
6.500000E-6,0.468000
6.520000E-6,0.468000
6.540000E-6,0.498000
6.560000E-6,0.438000
6.580000E-6,0.458000
6.600000E-6,0.458000
6.620000E-6,0.448000
6.640000E-6,0.448000
6.660000E-6,0.428000
6.680000E-6,0.458000
6.700000E-6,0.438000
6.720000E-6,0.438000
6.740000E-6,0.468000
6.760000E-6,0.418000
6.780000E-6,0.438000
6.800000E-6,0.408000
6.820000E-6,0.388000
6.840000E-6,0.418000
6.860000E-6,0.418000
6.880000E-6,0.398000
6.900000E-6,0.428000
6.920000E-6,0.408000
6.940000E-6,0.398000
6.960000E-6,0.398000
6.980000E-6,0.388000
7.000000E-6,0.398000
7.020000E-6,0.388000
7.040000E-6,0.378000
7.060000E-6,0.368000
7.080000E-6,0.408000
7.100000E-6,0.408000
7.120000E-6,0.368000
7.140000E-6,0.378000
7.160000E-6,0.388000
7.180000E-6,0.388000
7.200000E-6,0.358000
7.220000E-6,0.398000
7.240000E-6,0.368000
7.260000E-6,0.358000
7.280000E-6,0.378000
7.300000E-6,0.398000
7.320000E-6,0.358000
7.340000E-6,0.358000
7.360000E-6,0.358000
7.380000E-6,0.358000
7.400000E-6,0.328000
7.420000E-6,0.358000
7.440000E-6,0.368000
7.460000E-6,0.358000
7.480000E-6,0.338000
7.500000E-6,0.358000
7.520000E-6,0.338000
7.540000E-6,0.338000
7.560000E-6,0.338000
7.580000E-6,0.308000
7.600000E-6,0.318000
7.620000E-6,0.318000
7.640000E-6,0.298000
7.660000E-6,0.338000
7.680000E-6,0.318000
7.700000E-6,0.318000
7.720000E-6,0.318000
7.740000E-6,0.318000
7.760000E-6,0.328000
7.780000E-6,0.278000
7.800000E-6,0.298000
7.820000E-6,0.278000
7.840000E-6,0.318000
7.860000E-6,0.328000
7.880000E-6,0.288000
7.900000E-6,0.318000
7.920000E-6,0.278000
7.940000E-6,0.328000
7.960000E-6,0.308000
7.980000E-6,0.288000
8.000000E-6,0.298000
8.020000E-6,0.298000
8.040000E-6,0.298000
8.060000E-6,0.318000
8.080000E-6,0.298000
8.100000E-6,0.308000
8.120000E-6,0.308000
8.140000E-6,0.288000
8.160000E-6,0.268000
8.180000E-6,0.278000
8.200000E-6,0.288000
8.220000E-6,0.278000
8.240000E-6,0.298000
8.260000E-6,0.278000
8.280000E-6,0.258000
8.300000E-6,0.298000
8.320000E-6,0.278000
8.340000E-6,0.278000
8.360000E-6,0.268000
8.380000E-6,0.268000
8.400000E-6,0.268000
8.420000E-6,0.278000
8.440000E-6,0.258000
8.460000E-6,0.248000
8.480000E-6,0.248000
8.500000E-6,0.238000
8.520000E-6,0.288000
8.540000E-6,0.238000
8.560000E-6,0.238000
8.580000E-6,0.218000
8.600000E-6,0.258000
8.620000E-6,0.268000
8.640000E-6,0.248000
8.660000E-6,0.238000
8.680000E-6,0.228000
8.700000E-6,0.268000
8.720000E-6,0.268000
8.740000E-6,0.208000
8.760000E-6,0.268000
8.780000E-6,0.238000
8.800000E-6,0.248000
8.820000E-6,0.268000
8.840000E-6,0.258000
8.860000E-6,0.248000
8.880000E-6,0.238000
8.900000E-6,0.218000
8.920000E-6,0.218000
8.940000E-6,0.218000
8.960000E-6,0.228000
8.980000E-6,0.248000
9.000000E-6,0.228000
9.020000E-6,0.248000
9.040000E-6,0.248000
9.060000E-6,0.258000
9.080000E-6,0.238000
9.100000E-6,0.218000
9.120000E-6,0.218000
9.140000E-6,0.238000
9.160000E-6,0.198000
9.180000E-6,0.208000
9.200000E-6,0.248000
9.220000E-6,0.218000
9.240000E-6,0.208000
9.260000E-6,0.198000
9.280000E-6,0.238000
9.300000E-6,0.218000
9.320000E-6,0.218000
9.340000E-6,0.218000
9.360000E-6,0.218000
9.380000E-6,0.198000
9.400000E-6,0.218000
9.420000E-6,0.208000
9.440000E-6,0.188000
9.460000E-6,0.228000
9.480000E-6,0.168000
9.500000E-6,0.208000
9.520000E-6,0.208000
9.540000E-6,0.218000
9.560000E-6,0.178000
9.580000E-6,0.188000
9.600000E-6,0.188000
9.620000E-6,0.168000
9.640000E-6,0.218000
9.660000E-6,0.198000
9.680000E-6,0.208000
9.700000E-6,0.178000
9.720000E-6,0.198000
9.740000E-6,0.238000
9.760000E-6,0.178000
9.780000E-6,0.198000
9.800000E-6,0.198000
9.820000E-6,0.188000
9.840000E-6,0.188000
9.860000E-6,0.168000
9.880000E-6,0.208000
9.900000E-6,0.178000
9.920000E-6,0.208000
9.940000E-6,0.208000
9.960000E-6,0.188000
9.980000E-6,0.198000
