Time(s),Position(V)
0.351000,1.835947
3.367000,1.848505
6.365000,1.830505
9.365000,1.844164
12.365000,1.826704
15.365000,1.808697
18.365000,1.815853
21.366000,1.789466
24.364000,1.788953
27.364000,1.758756
30.364000,1.743495
33.364000,1.718632
36.364000,1.692480
39.362000,1.665621
42.362000,1.640770
45.364000,1.609614
48.362000,1.575542
51.362000,1.539365
54.362000,1.502062
57.362000,1.466280
60.362000,1.423994
63.360000,1.380644
66.361000,1.339350
69.361000,1.296929
72.361000,1.252175
75.361000,1.202196
78.359000,1.156946
81.359000,1.105930
84.359000,1.053993
87.360000,0.998228
90.360000,0.942548
93.360000,0.886134
96.358000,0.826620
99.358000,0.764362
102.358000,0.702193
105.358000,0.637239
108.358000,0.569859
111.357000,0.503759
114.357000,0.436263
117.357000,0.364837
120.357000,0.294166
123.357000,0.224548
126.355000,0.151813
129.355000,0.079184
132.356000,0.003777
135.356000,-0.069883
138.356000,-0.143100
141.354000,-0.214611
144.354000,-0.293387
147.354000,-0.369083
150.354000,-0.446410
153.355000,-0.525037
156.355000,-0.606535
159.353000,-0.683336
162.353000,-0.761302
165.353000,-0.838797
168.353000,-0.918749
171.353000,-0.996647
174.351000,-1.075545
177.352000,-1.157513
180.352000,-1.236884
183.352000,-1.318919
186.352000,-1.406048
189.352000,-1.485078
192.350000,-1.566268
195.350000,-1.639512
198.351000,-1.708668
201.351000,-1.781522
204.351000,-1.848698
207.349000,-1.920451
210.349000,-1.996514
213.349000,-2.076904
216.349000,-2.158267
219.350000,-2.234061
222.348000,-2.305328
225.348000,-2.370125
228.348000,-2.428402
231.348000,-2.485540
234.348000,-2.552292
237.346000,-2.624761
240.347000,-2.699220
243.348000,-2.771122
246.346000,-2.836657
249.346000,-2.892969
252.346000,-2.939375
255.346000,-2.986801
258.346000,-3.033645
261.344000,-3.089702
264.345000,-3.150811
267.345000,-3.215802
270.345000,-3.279919
273.345000,-3.326614
276.345000,-3.368298
279.343000,-3.402609
282.343000,-3.435795
285.344000,-3.469680
288.344000,-3.502523
291.344000,-3.538299
294.342000,-3.576787
297.342000,-3.615725
300.342000,-3.652894
303.342000,-3.692437
306.342000,-3.722376
309.341000,-3.748661
312.341000,-3.770839
315.341000,-3.787438
318.341000,-3.809837
321.341000,-3.818006
324.341000,-3.820515
327.339000,-3.836676
330.340000,-3.845440
333.340000,-3.857579
336.340000,-3.862832
339.340000,-3.859439
342.338000,-3.860034
345.338000,-3.858793
348.338000,-3.859507
351.339000,-3.856002
354.339000,-3.850094
357.337000,-3.843635
360.337000,-3.834014
363.337000,-3.826777
366.337000,-3.813138
369.337000,-3.804079
372.335000,-3.791453
375.336000,-3.786089
378.336000,-3.762473
381.336000,-3.738581
384.336000,-3.715995
387.336000,-3.688918
390.334000,-3.656987
393.334000,-3.618250
396.335000,-3.573925
399.335000,-3.535164
402.335000,-3.496669
405.333000,-3.465299
408.333000,-3.431705
411.333000,-3.404628
414.333000,-3.369141
417.334000,-3.332431
420.334000,-3.293694
423.332000,-3.247475
426.332000,-3.193002
429.332000,-3.132219
432.332000,-3.073453
435.332000,-3.025918
438.330000,-2.979349
441.331000,-2.935547
444.331000,-2.891133
447.331000,-2.845502
450.331000,-2.796087
453.329000,-2.740462
456.329000,-2.677008
459.329000,-2.609678
462.330000,-2.544650
465.330000,-2.483803
468.328000,-2.429707
471.328000,-2.380163
474.328000,-2.328668
477.328000,-2.271285
480.328000,-2.210833
483.329000,-2.146518
486.327000,-2.077472
489.327000,-2.005934
492.327000,-1.939797
495.327000,-1.875415
498.327000,-1.814364
501.325000,-1.753694
504.325000,-1.695740
507.326000,-1.641488
510.326000,-1.581480
513.326000,-1.518104
516.324000,-1.454402
519.324000,-1.388133
522.324000,-1.324420
525.324000,-1.255176
528.325000,-1.194941
531.325000,-1.134811
534.323000,-1.073805
537.323000,-1.014100
540.323000,-0.955871
543.323000,-0.896839
546.323000,-0.840095
549.322000,-0.783606
552.322000,-0.728848
555.322000,-0.670122
558.322000,-0.615823
561.322000,-0.559922
564.320000,-0.504045
567.320000,-0.452213
570.320000,-0.401510
573.321000,-0.348217
576.321000,-0.304836
579.319000,-0.260079
582.319000,-0.214360
585.319000,-0.166665
588.318000,-0.127891
591.318000,-0.083518
594.319000,-0.043938
597.319000,-0.003393
600.319000,0.030269
603.317000,0.067551
606.317000,0.103755
609.317000,0.140609
612.317000,0.176296
615.318000,0.202295
618.318000,0.233013
621.317000,0.263622
624.317000,0.290365
627.315000,0.321185
630.315000,0.343811
633.315000,0.367506
636.315000,0.385305
639.316000,0.402146
642.316000,0.424229
645.314000,0.435403
648.314000,0.442131
651.314000,0.458533
654.314000,0.472947
657.314000,0.486337
660.315000,0.484947
663.313000,0.492460
666.313000,0.495033
669.313000,0.500544
672.313000,0.505276
675.311000,0.499163
678.311000,0.494533
681.312000,0.497042
684.312000,0.489288
687.312000,0.492585
690.312000,0.469150
693.310000,0.453026
696.310000,0.443314
699.310000,0.428489
702.310000,0.420955
705.311000,0.399804
708.309000,0.382949
711.309000,0.370341
714.309000,0.351668
717.309000,0.327916
720.309000,0.306037
723.307000,0.280184
726.308000,0.257502
729.308000,0.228345
732.308000,0.204291
735.308000,0.175008
738.308000,0.145585
741.306000,0.116330
744.306000,0.085109
747.307000,0.051913
750.307000,0.019149
753.307000,-0.016820
756.305000,-0.054218
759.305000,-0.090480
762.305000,-0.127497
765.305000,-0.163392
768.305000,-0.203210
771.304000,-0.241817
774.304000,-0.282223
777.304000,-0.324292
780.304000,-0.369110
783.304000,-0.412395
786.304000,-0.455844
789.302000,-0.502328
792.303000,-0.548823
795.303000,-0.593726
798.303000,-0.642009
801.303000,-0.688115
804.301000,-0.735494
807.301000,-0.782423
810.301000,-0.827629
813.302000,-0.875490
816.302000,-0.924133
819.300000,-0.973402
822.300000,-1.020573
825.300000,-1.069521
828.300000,-1.119283
831.300000,-1.167698
834.298000,-1.219421
837.299000,-1.271307
840.299000,-1.321510
843.299000,-1.375034
846.299000,-1.427471
849.299000,-1.476053
852.297000,-1.527092
855.297000,-1.576435
858.298000,-1.622862
861.298000,-1.668235
864.298000,-1.710429
867.296000,-1.754037
870.296000,-1.795238
873.296000,-1.837269
876.296000,-1.881704
879.297000,-1.924319
882.297000,-1.969073
885.295000,-2.015085
888.295000,-2.064472
891.295000,-2.111378
894.295000,-2.157437
897.295000,-2.201746
900.293000,-2.247367
903.294000,-2.286977
906.294000,-2.322814
909.294000,-2.358169
912.294000,-2.387860
915.292000,-2.420804
918.292000,-2.444243
921.292000,-2.475372
924.293000,-2.503992
927.293000,-2.536131
930.291000,-2.569438
933.291000,-2.602355
936.291000,-2.632614
939.291000,-2.667350
942.291000,-2.698734
945.292000,-2.727952
948.290000,-2.753390
951.290000,-2.778784
954.290000,-2.802594
957.290000,-2.825149
960.290000,-2.840498
963.288000,-2.857862
966.288000,-2.874319
969.289000,-2.885612
972.289000,-2.895800
975.289000,-2.911006
978.287000,-2.916252
981.287000,-2.922979
984.287000,-2.931070
987.287000,-2.938742
990.288000,-2.934027
993.288000,-2.947683
996.286000,-2.943621
999.286000,-2.948373
1002.286000,-2.930546
1005.286000,-2.933776
1008.286000,-2.933164
1011.285000,-2.931882
1014.285000,-2.941717
1017.285000,-2.923302
1020.285000,-2.927810
1023.284000,-2.909405
1026.284000,-2.917067
1029.284000,-2.906182
1032.284000,-2.883858
1035.283000,-2.880666
1038.283000,-2.869397
1041.283000,-2.859056
1044.283000,-2.845618
1047.283000,-2.826999
1050.281000,-2.810916
1053.281000,-2.793755
1056.282000,-2.772329
1059.282000,-2.752489
1062.282000,-2.728268
1065.280000,-2.706797
1068.280000,-2.675277
1071.280000,-2.645104
1074.279000,-2.615817
1077.280000,-2.586439
1080.340000,-2.554525
1083.280000,-2.523240
1086.280000,-2.496802
1089.278000,-2.466826
1092.278000,-2.439933
1095.278000,-2.413614
1098.278000,-2.387812
1101.279000,-2.359644
1104.279000,-2.332343
1107.277000,-2.302044
1110.277000,-2.272679
1113.277000,-2.240632
1116.277000,-2.203011
1119.277000,-2.167364
1122.276000,-2.125802
1125.276000,-2.086491
1128.276000,-2.043008
1131.276000,-2.002041
1134.276000,-1.960622
1137.276000,-1.922841
1140.274000,-1.883757
1143.275000,-1.846975
1146.275000,-1.808659
1149.275000,-1.774420
1152.275000,-1.738835
1155.273000,-1.702284
1158.274000,-1.667011
1161.272000,-1.631384
1164.272000,-1.595367
1167.273000,-1.557854
1170.273000,-1.518910
1173.273000,-1.481995
1176.273000,-1.441076
1179.271000,-1.400530
1182.271000,-1.359961
1185.271000,-1.317665
1188.272000,-1.277885
1191.272000,-1.239668
1194.270000,-1.201475
1197.270000,-1.163744
1200.270000,-1.127965
1203.270000,-1.092070
1206.270000,-1.058371
1209.269000,-1.022296
1212.269000,-0.992585
1215.269000,-0.957785
1218.269000,-0.924732
1221.269000,-0.895829
1224.269000,-0.863558
1227.267000,-0.834027
1230.268000,-0.803979
1233.268000,-0.775985
1236.268000,-0.750842
1239.268000,-0.722566
1242.266000,-0.694979
1245.266000,-0.670918
1248.266000,-0.645826
1251.266000,-0.620731
1254.267000,-0.593111
1257.265000,-0.568774
1260.265000,-0.548197
1263.265000,-0.525104
1266.265000,-0.500118
1269.265000,-0.492470
1272.263000,-0.469476
1275.264000,-0.454817
1278.264000,-0.431929
1281.264000,-0.410390
1284.264000,-0.417461
1287.264000,-0.382167
1290.262000,-0.377014
1293.262000,-0.370273
1296.263000,-0.344416
1299.263000,-0.347129
1302.263000,-0.333603
1305.261000,-0.318285
1308.261000,-0.307158
1311.261000,-0.309157
1314.261000,-0.302824
1317.261000,-0.312067
1320.262000,-0.289722
1323.260000,-0.301437
1326.260000,-0.286622
1329.260000,-0.300618
1332.260000,-0.280809
1335.260000,-0.302368
1338.258000,-0.293074
1341.259000,-0.296382
1344.259000,-0.298796
1347.259000,-0.303579
1350.259000,-0.309351
1353.257000,-0.317707
1356.257000,-0.331900
1359.257000,-0.338756
1362.258000,-0.334881
1365.258000,-0.349233
1368.258000,-0.366734
1371.256000,-0.378520
1374.256000,-0.389925
1377.256000,-0.399015
1380.256000,-0.412538
1383.256000,-0.427231
1386.255000,-0.440094
1389.255000,-0.457877
1392.255000,-0.471277
1395.255000,-0.485929
1398.255000,-0.504555
1401.253000,-0.523211
1404.253000,-0.541966
1407.255000,-0.559187
1410.253000,-0.580308
1413.253000,-0.601266
1416.253000,-0.623968
1419.253000,-0.644256
1422.253000,-0.667345
1425.251000,-0.687894
1428.252000,-0.712343
1431.252000,-0.732839
1434.252000,-0.758114
1437.252000,-0.780788
1440.250000,-0.802616
1443.250000,-0.827147
1446.250000,-0.852197
1449.250000,-0.878234
1452.251000,-0.903604
1455.251000,-0.927050
1458.249000,-0.952811
1461.249000,-0.978960
1464.249000,-1.005802
1467.249000,-1.032358
1470.249000,-1.058609
1473.248000,-1.085900
1476.248000,-1.114993
1479.248000,-1.140730
1482.248000,-1.168857
1485.248000,-1.198082
1488.246000,-1.226444
1491.246000,-1.258603
1494.247000,-1.288001
1497.247000,-1.316978
1500.247000,-1.347937
1503.247000,-1.376557
1506.245000,-1.408251
1509.245000,-1.436820
1512.245000,-1.460629
1515.245000,-1.492098
1518.246000,-1.520426
1521.244000,-1.546524
1524.244000,-1.573488
1527.245000,-1.600099
1530.243000,-1.626006
1533.243000,-1.651125
1536.243000,-1.673412
1539.244000,-1.697154
1542.244000,-1.719784
1545.242000,-1.744362
1548.242000,-1.766914
1551.242000,-1.787100
1554.242000,-1.809693
1557.242000,-1.831014
1560.241000,-1.854120
1563.241000,-1.873933
1566.241000,-1.897810
1569.241000,-1.918680
1572.241000,-1.938529
1575.241000,-1.959460
1578.239000,-1.980910
1581.239000,-2.003534
1584.240000,-2.023937
1587.240000,-2.044732
1590.240000,-2.066944
1593.238000,-2.086695
1596.238000,-2.105031
1599.238000,-2.123031
1602.238000,-2.141997
1605.239000,-2.157335
1608.237000,-2.175223
1611.237000,-2.189610
1614.237000,-2.204007
1617.237000,-2.216816
1620.237000,-2.226831
1623.235000,-2.242455
1626.236000,-2.251385
1629.236000,-2.258969
1632.236000,-2.271132
1635.236000,-2.276208
1638.236000,-2.282500
1641.234000,-2.294001
1644.234000,-2.289608
1647.234000,-2.304654
1650.235000,-2.311090
1653.235000,-2.305076
1656.233000,-2.309869
1659.233000,-2.311742
1662.233000,-2.319612
1665.233000,-2.314476
1668.233000,-2.313384
1671.232000,-2.317559
1674.232000,-2.311736
1677.232000,-2.303081
1680.232000,-2.310773
1683.232000,-2.307989
1686.232000,-2.293062
1689.230000,-2.287596
1692.231000,-2.284084
1695.232000,-2.287936
1698.230000,-2.275477
1701.230000,-2.269246
1704.230000,-2.260098
1707.230000,-2.252497
1710.230000,-2.242200
1713.228000,-2.231301
1716.229000,-2.221245
1719.229000,-2.211645
1722.228000,-2.197255
1725.228000,-2.184732
1728.228000,-2.171447
1731.228000,-2.154405
1734.228000,-2.139682
1737.227000,-2.122430
1740.227000,-2.109294
1743.227000,-2.092011
1746.227000,-2.071788
1749.227000,-2.055029
1752.225000,-2.035523
1755.225000,-2.015636
1758.226000,-1.996884
1761.226000,-1.976290
1764.226000,-1.954479
1767.224000,-1.936639
1770.224000,-1.917347
1773.224000,-1.896345
1776.224000,-1.874891
1779.224000,-1.867739
1782.225000,-1.835729
1785.223000,-1.815965
1788.223000,-1.797451
1791.223000,-1.779961
1794.223000,-1.759041
1797.223000,-1.740303
1800.338000,-1.717938
1803.223000,-1.696382
1806.223000,-1.676577
1809.221000,-1.656547
1812.221000,-1.634729
1815.221000,-1.614370
1818.221000,-1.591964
1821.221000,-1.571595
1824.220000,-1.545562
1827.220000,-1.523411
1830.220000,-1.501185
1833.220000,-1.476168
1836.220000,-1.452148
1839.218000,-1.429320
1842.218000,-1.404025
1845.218000,-1.379715
1848.219000,-1.354886
1851.219000,-1.327785
1854.217000,-1.307120
1857.217000,-1.282817
1860.217000,-1.259612
1863.217000,-1.237696
1866.217000,-1.217017
1869.218000,-1.192279
1872.216000,-1.168130
1875.216000,-1.148226
1878.216000,-1.128081
1881.216000,-1.101847
1884.216000,-1.083123
1887.214000,-1.060717
1890.215000,-1.043815
1893.215000,-1.031900
1896.215000,-1.005438
1899.215000,-0.988560
1902.213000,-0.970257
1905.213000,-0.967045
1908.213000,-0.941362
1911.213000,-0.928784
1914.214000,-0.918701
1917.214000,-0.897852
1920.212000,-0.891461
1923.212000,-0.871921
1926.212000,-0.865666
1929.212000,-0.848964
1932.212000,-0.836397
1935.211000,-0.833167
1938.211000,-0.812699
1941.211000,-0.804125
1944.211000,-0.791544
1947.211000,-0.787482
1950.211000,-0.773812
1953.209000,-0.764750
1956.210000,-0.764328
1959.210000,-0.757580
1962.210000,-0.758685
1965.210000,-0.738757
1968.208000,-0.742541
1971.208000,-0.740440
1974.208000,-0.736170
1977.208000,-0.724286
1980.209000,-0.733862
1983.208000,-0.720264
1986.208000,-0.717579
1989.208000,-0.722086
1992.206000,-0.729222
1995.206000,-0.722453
1998.206000,-0.730252
2001.207000,-0.731306
2004.207000,-0.736911
2007.205000,-0.737642
2010.205000,-0.730582
2013.205000,-0.741167
2016.205000,-0.741429
2019.205000,-0.756611
2022.204000,-0.754765
2025.204000,-0.763475
2028.204000,-0.771939
2031.204000,-0.780010
2034.204000,-0.763366
2037.204000,-0.774649
2040.202000,-0.798656
2043.202000,-0.803925
2046.203000,-0.812172
2049.203000,-0.825172
2052.203000,-0.835108
2055.202000,-0.842985
2058.202000,-0.857949
2061.202000,-0.867294
2064.200000,-0.878319
2067.201000,-0.889741
2070.201000,-0.901782
2073.201000,-0.916882
2076.201000,-0.926785
2079.199000,-0.941912
2082.199000,-0.956877
2085.199000,-0.970971
2088.200000,-0.985453
2091.200000,-0.999146
2094.198000,-1.014175
2097.198000,-1.030805
2100.198000,-1.045603
2103.198000,-1.063589
2106.198000,-1.082147
2109.196000,-1.098658
2112.197000,-1.115343
2115.197000,-1.132826
2118.197000,-1.151435
2121.197000,-1.167711
2124.197000,-1.186181
2127.195000,-1.205476
2130.195000,-1.223792
2133.197000,-1.243778
2136.195000,-1.263032
2139.195000,-1.283844
2142.195000,-1.298502
2145.195000,-1.320969
2148.195000,-1.341417
2151.193000,-1.362643
2154.194000,-1.381000
2157.194000,-1.404154
2160.194000,-1.422382
2163.194000,-1.443690
2166.192000,-1.457631
2169.192000,-1.479027
2172.192000,-1.499897
2175.192000,-1.520365
2178.193000,-1.536295
2181.193000,-1.555852
2184.191000,-1.574933
2187.191000,-1.593314
2190.191000,-1.608506
2193.191000,-1.621125
2196.191000,-1.642868
2199.190000,-1.657319
2202.190000,-1.673939
2205.190000,-1.691987
2208.190000,-1.704650
2211.190000,-1.719794
2214.188000,-1.733531
2217.188000,-1.746694
2220.189000,-1.764643
2223.189000,-1.778210
2226.189000,-1.787627
2229.187000,-1.800304
2232.187000,-1.813500
2235.187000,-1.825310
2238.187000,-1.838748
2241.187000,-1.850143
2244.188000,-1.861249
2247.186000,-1.871267
2250.186000,-1.880599
2253.186000,-1.891851
2256.186000,-1.903066
2259.186000,-1.912034
2262.184000,-1.923007
2265.185000,-1.929249
2268.185000,-1.941735
2271.185000,-1.945563
2274.185000,-1.950573
2277.185000,-1.957821
2280.183000,-1.953463
2283.183000,-1.969495
2286.184000,-1.977286
2289.184000,-1.982657
2292.184000,-1.985914
2295.182000,-1.988896
2298.182000,-1.991272
2301.182000,-1.989800
2304.182000,-1.996150
2307.182000,-1.985486
2310.181000,-1.984571
2313.181000,-1.987604
2316.181000,-1.990323
2319.181000,-1.984830
2322.181000,-1.977524
2325.179000,-1.975301
2328.179000,-1.981294
2331.180000,-1.980536
2334.180000,-1.970610
2337.180000,-1.966867
2340.180000,-1.960306
2343.178000,-1.953663
2346.178000,-1.950822
2349.178000,-1.947799
2352.179000,-1.935687
2355.179000,-1.944315
2358.178000,-1.917860
2361.178000,-1.909216
2364.178000,-1.903861
2367.177000,-1.894452
2370.177000,-1.896097
2373.175000,-1.877733
2376.176000,-1.870203
2379.176000,-1.856571
2382.176000,-1.848365
2385.176000,-1.835009
2388.176000,-1.822138
2391.174000,-1.812780
2394.174000,-1.804621
2397.175000,-1.790924
2400.175000,-1.778448
2403.175000,-1.770198
2406.173000,-1.754809
2409.174000,-1.742227
2412.174000,-1.730322
2415.172000,-1.716463
2418.173000,-1.702926
2421.173000,-1.693625
2424.173000,-1.682995
2427.173000,-1.666623
2430.171000,-1.652794
2433.171000,-1.644421
2436.171000,-1.624341
2439.171000,-1.613915
2442.172000,-1.594034
2445.170000,-1.579906
2448.170000,-1.570286
2451.170000,-1.551687
2454.170000,-1.534782
2457.170000,-1.517183
2460.168000,-1.501760
2463.169000,-1.489477
2466.169000,-1.467887
2469.169000,-1.453083
2472.169000,-1.436854
2475.169000,-1.419951
2478.167000,-1.404253
2481.167000,-1.385862
2484.168000,-1.369877
2487.168000,-1.353781
2490.168000,-1.335539
2493.166000,-1.321180
2496.166000,-1.302102
2499.166000,-1.288267
2502.166000,-1.286876
2505.166000,-1.265997
2508.165000,-1.243577
2511.165000,-1.230034
2514.165000,-1.216154
2517.165000,-1.199323
2520.165000,-1.186895
2523.165000,-1.167382
2526.163000,-1.160576
2529.164000,-1.148086
2532.164000,-1.128801
2535.164000,-1.126088
2538.164000,-1.106181
2541.162000,-1.092872
2544.162000,-1.084510
2547.162000,-1.069317
2550.163000,-1.055386
2553.163000,-1.044189
2556.161000,-1.039885
2559.161000,-1.025250
2562.161000,-1.019532
2565.161000,-1.009167
2568.161000,-1.014297
2571.161000,-0.989593
2574.160000,-0.977804
2577.160000,-0.982182
2580.160000,-0.972650
2583.160000,-0.958478
2586.160000,-0.949068
2589.158000,-0.943871
2592.158000,-0.933835
2595.159000,-0.939121
2598.159000,-0.926928
2601.159000,-0.923290
2604.157000,-0.914737
2607.157000,-0.917807
2610.157000,-0.927118
2613.157000,-0.906786
2616.158000,-0.918905
2619.158000,-0.890805
2622.156000,-0.894286
2625.156000,-0.889177
2628.156000,-0.900969
2631.156000,-0.911195
2634.156000,-0.885624
2637.154000,-0.904627
2640.155000,-0.906402
2643.155000,-0.897509
2646.155000,-0.881851
2649.155000,-0.890030
2652.153000,-0.907041
2655.153000,-0.888283
2658.153000,-0.896604
2661.154000,-0.914537
2664.154000,-0.914679
2667.154000,-0.920163
2670.152000,-0.916097
2673.152000,-0.918174
2676.152000,-0.926462
2679.152000,-0.928770
2682.153000,-0.937072
2685.151000,-0.938020
2688.151000,-0.943582
2691.151000,-0.948426
2694.151000,-0.954181
2697.151000,-0.961521
2700.149000,-0.966171
2703.149000,-0.972341
2706.150000,-0.981846
2709.150000,-0.983260
2712.150000,-0.994784
2715.148000,-1.004765
2718.148000,-1.008073
2721.148000,-1.011000
2724.148000,-1.009140
2727.149000,-1.036322
2730.149000,-1.044872
2733.147000,-1.052667
2736.147000,-1.063606
2739.147000,-1.074665
2742.147000,-1.084217
2745.147000,-1.093426
2748.146000,-1.104672
2751.146000,-1.110237
2754.146000,-1.125698
2757.146000,-1.130926
2760.146000,-1.142848
2763.146000,-1.158445
2766.144000,-1.154760
2769.144000,-1.175449
2772.145000,-1.189002
2775.145000,-1.202066
2778.145000,-1.212360
2781.143000,-1.223898
2784.143000,-1.230724
2787.143000,-1.248092
2790.143000,-1.253296
2793.144000,-1.271436
2796.142000,-1.283334
2799.142000,-1.293869
2802.142000,-1.305053
2805.142000,-1.317866
2808.142000,-1.329913
2811.140000,-1.341421
2814.141000,-1.354621
2817.141000,-1.367399
2820.141000,-1.377992
2823.141000,-1.388717
2826.141000,-1.403835
2829.139000,-1.413462
2832.139000,-1.423337
2835.139000,-1.434957
2838.140000,-1.446719
2841.140000,-1.454782
2844.138000,-1.460714
2847.138000,-1.475648
2850.138000,-1.487958
2853.138000,-1.494587
2856.138000,-1.507947
2859.137000,-1.515592
2862.137000,-1.524736
2865.137000,-1.534558
2868.137000,-1.543162
2871.137000,-1.549906
2874.137000,-1.561369
2877.135000,-1.569014
2880.136000,-1.575854
2883.136000,-1.583149
2886.136000,-1.592148
2889.136000,-1.597743
2892.134000,-1.603750
2895.134000,-1.612113
2898.134000,-1.618116
2901.135000,-1.617681
2904.135000,-1.627747
2907.133000,-1.632771
2910.133000,-1.636830
2913.133000,-1.641685
2916.133000,-1.645910
2919.133000,-1.650112
2922.131000,-1.655211
2925.132000,-1.658913
2928.132000,-1.659777
2931.132000,-1.663567
2934.132000,-1.665406
2937.132000,-1.667966
2940.130000,-1.676227
2943.130000,-1.677294
2946.131000,-1.655483
2949.131000,-1.653661
2952.131000,-1.675445
2955.129000,-1.679273
2958.129000,-1.679300
2961.129000,-1.680938
2964.129000,-1.662435
2967.129000,-1.671848
2970.130000,-1.678365
2973.128000,-1.654905
2976.128000,-1.674863
2979.128000,-1.665138
2982.128000,-1.655568
2985.128000,-1.673351
2988.126000,-1.650068
2991.127000,-1.648820
2994.127000,-1.658267
2997.127000,-1.641539
3000.127000,-1.657397
3003.125000,-1.634995
3006.125000,-1.640852
3009.125000,-1.648735
3012.126000,-1.626367
3015.126000,-1.639723
3018.124000,-1.615509
3021.124000,-1.615777
3024.124000,-1.619524
3027.124000,-1.609230
3030.124000,-1.595309
3033.125000,-1.598583
3036.123000,-1.579512
3039.123000,-1.593766
3042.123000,-1.569161
3045.123000,-1.582225
3048.123000,-1.554009
3051.121000,-1.543967
3054.121000,-1.541792
3057.122000,-1.534496
3060.122000,-1.523849
3063.122000,-1.521898
3066.120000,-1.512379
3069.120000,-1.496840
3072.120000,-1.486860
3075.120000,-1.480448
3078.121000,-1.474023
3081.120000,-1.459776
3084.120000,-1.451750
3087.120000,-1.442334
3090.118000,-1.437992
3093.118000,-1.423579
3096.118000,-1.414652
3099.119000,-1.410967
3102.119000,-1.395591
3105.119000,-1.381966
3108.117000,-1.373777
3111.118000,-1.366733
3114.116000,-1.359043
3117.116000,-1.346822
3120.116000,-1.339364
3123.117000,-1.325620
3126.117000,-1.310686
3129.115000,-1.299420
3132.115000,-1.292071
3135.115000,-1.281230
3138.115000,-1.295552
3141.115000,-1.266711
3144.116000,-1.248846
3147.114000,-1.246086
3150.114000,-1.237186
3153.114000,-1.230799
3156.114000,-1.213390
3159.114000,-1.205799
3162.112000,-1.197151
3165.113000,-1.189944
3168.113000,-1.178467
3171.113000,-1.175945
3174.113000,-1.172396
3177.113000,-1.154861
3180.111000,-1.156701
3183.111000,-1.131993
3186.111000,-1.128135
3189.112000,-1.118858
3192.112000,-1.106715
3195.110000,-1.102479
3198.110000,-1.099267
3201.110000,-1.085968
3204.110000,-1.084088
3207.110000,-1.074716
3210.109000,-1.064494
3213.109000,-1.062576
3216.109000,-1.074553
3219.109000,-1.043339
3222.109000,-1.041384
3225.109000,-1.041802
3228.107000,-1.024390
3231.108000,-1.015164
3234.108000,-1.025665
3237.108000,-1.011173
3240.108000,-1.012883
3243.106000,-1.004558
3246.106000,-1.004690
3249.105000,-1.004463
3252.105000,-0.985701
3255.106000,-0.980595
3258.106000,-0.997874
3261.106000,-0.976828
3264.106000,-0.994709
3267.104000,-0.971705
3270.104000,-0.965685
3273.104000,-0.966072
3276.105000,-0.957720
3279.105000,-0.974646
3282.103000,-0.955500
3285.103000,-0.949442
3288.103000,-0.968479
3291.103000,-0.972715
3294.103000,-0.958481
3297.102000,-0.944741
3300.102000,-0.946930
3303.102000,-0.973075
3306.102000,-0.968452
3309.102000,-0.972365
3312.102000,-0.971056
3315.100000,-0.965410
3318.100000,-0.966100
3321.101000,-0.975271
3324.101000,-0.975142
3327.101000,-0.976556
3330.099000,-0.973888
3333.099000,-0.960759
3336.099000,-0.971899
3339.099000,-0.959726
3342.100000,-0.984086
3345.098000,-0.989743
3348.098000,-0.996885
3351.098000,-0.999306
3354.098000,-1.004612
3357.098000,-1.007117
3360.098000,-1.009487
3363.097000,-1.017826
3366.097000,-1.019271
3369.097000,-1.026256
3372.097000,-1.032114
3375.097000,-1.034425
3378.095000,-1.037988
3381.095000,-1.044066
3384.095000,-1.047914
3387.096000,-1.058045
3390.096000,-1.063899
3393.094000,-1.066958
3396.094000,-1.078601
3399.094000,-1.087256
3402.094000,-1.092675
3405.094000,-1.093906
3408.095000,-1.101283
3411.093000,-1.111447
3414.093000,-1.121258
3417.093000,-1.128726
3420.093000,-1.134730
3423.093000,-1.143548
3426.091000,-1.151683
3429.092000,-1.161286
3432.092000,-1.163601
3435.092000,-1.176805
3438.092000,-1.185807
3441.090000,-1.194809
3444.091000,-1.205476
3447.091000,-1.210694
3450.089000,-1.220855
3453.090000,-1.230190
3456.090000,-1.236364
3459.090000,-1.248054
3462.090000,-1.254605
3465.088000,-1.266010
3468.088000,-1.274101
3471.088000,-1.285897
3474.089000,-1.291918
3477.089000,-1.297659
3480.087000,-1.308527
3483.087000,-1.316482
3486.087000,-1.328023
3489.087000,-1.334387
3492.087000,-1.344147
3495.088000,-1.352680
3498.086000,-1.354226
3501.086000,-1.373032
3504.086000,-1.378900
3507.086000,-1.386508
3510.085000,-1.394632
3513.085000,-1.403359
3516.085000,-1.404396
3519.086000,-1.412007
3522.084000,-1.423354
3525.084000,-1.433944
3528.084000,-1.440447
3531.084000,-1.445352
3534.084000,-1.454555
3537.082000,-1.455520
3540.084000,-1.460534
3543.084000,-1.460425
3546.082000,-1.476175
3549.082000,-1.480962
3552.082000,-1.486581
3555.082000,-1.494556
3558.082000,-1.497551
3561.081000,-1.500624
3564.081000,-1.510911
3567.081000,-1.516024
3570.081000,-1.519709
3573.081000,-1.510737
3576.081000,-1.517281
3579.079000,-1.526555
3582.079000,-1.531501
3585.080000,-1.535948
3588.080000,-1.540017
3591.080000,-1.546728
3594.078000,-1.532096
3597.078000,-1.520236
3600.077000,-1.541649
3603.078000,-1.555036
3606.078000,-1.557409
3609.078000,-1.559027
3612.078000,-1.557405
3615.078000,-1.567019
3618.076000,-1.562137
3621.076000,-1.548726
3624.076000,-1.559714
3627.077000,-1.573784
3630.077000,-1.565639
3633.075000,-1.550827
3636.075000,-1.574382
3639.075000,-1.575742
3642.075000,-1.565717
3645.075000,-1.562576
3648.073000,-1.557881
3651.074000,-1.566815
3654.074000,-1.577343
3657.074000,-1.576864
3660.074000,-1.567264
3663.074000,-1.554832
3666.072000,-1.564857
3669.072000,-1.575783
3672.073000,-1.559860
3675.073000,-1.551449
3678.073000,-1.557820
3681.071000,-1.554567
3684.071000,-1.545827
3687.071000,-1.566696
3690.071000,-1.555488
3693.072000,-1.554254
3696.070000,-1.554981
3699.070000,-1.541588
3702.071000,-1.559642
3705.069000,-1.540248
3708.069000,-1.541271
3711.069000,-1.534609
3714.069000,-1.533449
3717.070000,-1.544430
3720.068000,-1.520072
3723.068000,-1.519284
3726.068000,-1.540377
3729.068000,-1.518288
3732.068000,-1.530053
3735.066000,-1.501233
3738.067000,-1.505897
3741.067000,-1.510856
3744.067000,-1.499988
3747.067000,-1.499213
3750.067000,-1.495800
3753.065000,-1.485347
3756.065000,-1.489460
3759.066000,-1.472769
3762.066000,-1.470070
3765.066000,-1.467255
3768.064000,-1.456839
3771.064000,-1.454867
3774.064000,-1.452165
3777.064000,-1.465848
3780.064000,-1.448412
3783.065000,-1.443251
3786.063000,-1.433369
3789.063000,-1.427172
3792.063000,-1.429919
3795.063000,-1.414370
3798.063000,-1.413078
3801.061000,-1.430129
3804.062000,-1.414159
3807.062000,-1.390584
3810.062000,-1.387466
3813.062000,-1.392314
3816.060000,-1.375626
3819.060000,-1.373426
3822.060000,-1.363871
3825.061000,-1.377023
3828.061000,-1.371319
3831.061000,-1.352309
3834.059000,-1.347778
3837.059000,-1.348678
3840.059000,-1.337090
3843.059000,-1.332667
3846.059000,-1.325365
3849.058000,-1.345174
3852.058000,-1.314956
3855.058000,-1.306607
3858.058000,-1.305842
3861.058000,-1.306644
3864.056000,-1.292468
3867.056000,-1.315700
3870.057000,-1.289868
3873.057000,-1.280846
3876.057000,-1.298383
3879.055000,-1.284235
3882.055000,-1.270501
3885.055000,-1.277772
3888.055000,-1.267513
3891.056000,-1.282617
3894.056000,-1.251226
3897.054000,-1.252399
3900.054000,-1.247177
3903.054000,-1.262754
3906.054000,-1.235153
3909.054000,-1.239511
3912.052000,-1.242989
3915.053000,-1.231258
3918.053000,-1.225839
3921.053000,-1.217510
3924.053000,-1.236153
3927.051000,-1.230360
3930.051000,-1.222501
3933.051000,-1.210823
3936.052000,-1.203430
3939.052000,-1.205129
3942.052000,-1.207703
3945.050000,-1.207448
3948.050000,-1.214369
3951.050000,-1.214372
3954.050000,-1.196209
3957.051000,-1.215212
3960.049000,-1.192837
3963.049000,-1.208423
3966.049000,-1.193112
3969.049000,-1.186320
3972.049000,-1.192918
3975.047000,-1.201648
3978.047000,-1.185525
3981.048000,-1.195641
3984.047000,-1.202240
3987.047000,-1.192691
3990.047000,-1.180150
3993.047000,-1.201254
3996.047000,-1.178093
3999.045000,-1.179990
4002.046000,-1.181761
4005.046000,-1.174395
4008.046000,-1.182023
4011.046000,-1.199459
4014.046000,-1.176163
4017.044000,-1.190875
4020.044000,-1.192466
4023.045000,-1.184199
4026.045000,-1.163330
4029.045000,-1.185817
4032.043000,-1.185089
4035.043000,-1.170764
4038.043000,-1.195070
4041.043000,-1.173494
4044.043000,-1.192925
4047.042000,-1.197498
4050.042000,-1.189808
4053.042000,-1.183114
4056.042000,-1.189322
4059.042000,-1.190124
4062.042000,-1.199211
4065.040000,-1.200000
4068.041000,-1.199520
4071.041000,-1.202631
4074.041000,-1.199945
4077.041000,-1.197756
4080.039000,-1.203923
4083.039000,-1.200105
4086.039000,-1.207601
4089.040000,-1.209858
4092.040000,-1.211439
4095.038000,-1.216501
4098.038000,-1.210854
4101.038000,-1.217571
4104.038000,-1.225047
4107.038000,-1.205221
4110.036000,-1.221695
4113.037000,-1.225217
4116.037000,-1.229537
4119.036000,-1.237628
4122.036000,-1.241361
4125.036000,-1.240902
4128.036000,-1.250978
4131.036000,-1.251508
4134.035000,-1.253368
4137.035000,-1.243241
4140.035000,-1.243666
4143.035000,-1.265279
4146.035000,-1.267132
4149.035000,-1.270943
4152.034000,-1.276515
4155.035000,-1.284704
4158.033000,-1.289654
4161.033000,-1.282579
4164.033000,-1.292390
4167.033000,-1.300590
4170.033000,-1.304740
4173.033000,-1.304853
4176.031000,-1.315942
4179.032000,-1.319878
4182.032000,-1.324474
4185.032000,-1.329529
4188.032000,-1.328482
4191.030000,-1.335053
4194.030000,-1.346095
4197.030000,-1.352931
4200.030000,-1.356868
4203.030000,-1.364058
4206.030000,-1.369432
4209.030000,-1.371213
4212.030000,-1.376761
4215.028000,-1.383778
4218.028000,-1.391022
4221.029000,-1.397029
4224.029000,-1.400728
4227.029000,-1.405137
4230.027000,-1.408733
4233.027000,-1.414798
4236.027000,-1.417650
4239.027000,-1.426203
4242.027000,-1.431295
4245.028000,-1.435739
4248.026000,-1.440977
4251.026000,-1.433155
4254.026000,-1.449251
4257.026000,-1.454201
4260.026000,-1.455017
4263.024000,-1.460262
4266.025000,-1.463801
4269.025000,-1.471307
4272.025000,-1.474384
4275.025000,-1.480238
4278.025000,-1.475458
4281.023000,-1.481193
4284.023000,-1.466106
4287.024000,-1.469485
4290.024000,-1.500294
4293.022000,-1.505985
4296.022000,-1.500729
4299.022000,-1.509354
4302.022000,-1.515833
4305.022000,-1.508015
4308.022000,-1.512226
4311.021000,-1.519461
4314.021000,-1.526018
4317.021000,-1.526355
4320.021000,-1.529771
4323.021000,-1.523101
4326.019000,-1.531501
4329.019000,-1.534629
4332.020000,-1.536635
4335.020000,-1.537039
4338.020000,-1.541350
4341.018000,-1.542611
4344.018000,-1.536084
4347.018000,-1.522853
4350.018000,-1.533810
4353.019000,-1.540445
4356.019000,-1.524002
4359.017000,-1.535146
4362.017000,-1.549328
4365.017000,-1.550039
4368.017000,-1.539993
4371.017000,-1.524934
4374.015000,-1.542444
4377.016000,-1.541214
4380.016000,-1.522398
4383.016000,-1.518723
4386.016000,-1.535458
4389.014000,-1.538637
4392.014000,-1.519889
4395.014000,-1.542556
4398.015000,-1.521912
4401.015000,-1.516143
4404.015000,-1.515864
4407.013000,-1.536686
4410.013000,-1.519749
4413.013000,-1.526562
4416.013000,-1.524600
4419.014000,-1.499550
4422.012000,-1.521901
4425.012000,-1.502868
4428.012000,-1.513144
4431.012000,-1.499948
4434.012000,-1.506733
4437.010000,-1.494175
4440.010000,-1.496963
4443.011000,-1.494719
4446.011000,-1.477776
4449.011000,-1.482964
4452.011000,-1.472126
4455.009000,-1.488706
4458.009000,-1.466092
4461.009000,-1.460555
4464.009000,-1.454959
4467.009000,-1.452087
4470.009000,-1.447178
4473.009000,-1.441837
4476.009000,-1.445043
4479.007000,-1.435535
4482.007000,-1.439158
4485.008000,-1.429409
4488.008000,-1.432733
4491.008000,-1.420866
4494.006000,-1.415746
4497.006000,-1.433046
4500.006000,-1.422630
4503.006000,-1.405188
4506.006000,-1.414169
4509.005000,-1.400282
4512.005000,-1.405952
4515.005000,-1.402308
4518.005000,-1.389611
4521.005000,-1.382571
4524.005000,-1.372240
4527.003000,-1.381109
4530.005000,-1.378509
4533.003000,-1.366696
4536.003000,-1.379008
4539.003000,-1.352459
4542.003000,-1.353404
4545.003000,-1.346747
4548.001000,-1.341359
4551.002000,-1.365625
4554.002000,-1.337987
4557.002000,-1.332935
4560.002000,-1.328469
4563.002000,-1.350582
4566.000000,-1.324036
4569.000000,-1.335924
4572.001000,-1.306250
4575.001000,-1.303765
4578.001000,-1.310615
4580.999000,-1.296578
4583.999000,-1.299063
4586.999000,-1.319718
4589.999000,-1.295171
4592.999000,-1.282056
4596.000000,-1.280383
4598.998000,-1.281716
4601.998000,-1.291329
4604.998000,-1.291904
4607.998000,-1.265990
4610.998000,-1.288821
4613.996000,-1.264504
4616.997000,-1.273027
4619.997000,-1.255934
4622.997000,-1.275410
4625.997000,-1.257716
4628.995000,-1.252032
4631.995000,-1.249601
4634.995000,-1.263039
4637.996000,-1.253228
4640.996000,-1.264984
4643.994000,-1.244519
4646.994000,-1.253769
4649.994000,-1.245841
4652.994000,-1.236418
4655.994000,-1.253510
4658.994000,-1.227821
4661.993000,-1.220712
4664.993000,-1.231570
4667.993000,-1.250380
4670.993000,-1.232121
4673.993000,-1.217758
4676.991000,-1.235809
4679.991000,-1.239138
4682.992000,-1.217765
4685.992000,-1.228286
4688.992000,-1.243033
4691.990000,-1.219529
4694.990000,-1.228943
4697.990000,-1.233675
4700.990000,-1.209943
4703.991000,-1.234949
4706.991000,-1.239698
4709.989000,-1.234582
4712.990000,-1.222120
4715.988000,-1.213669
4718.988000,-1.239947
4721.988000,-1.210919
4724.988000,-1.226029
4727.989000,-1.231686
4730.989000,-1.225665
4733.987000,-1.211398
4736.987000,-1.232706
4739.987000,-1.212030
4742.987000,-1.237934
4745.987000,-1.239358
4748.986000,-1.238288
4751.986000,-1.239416
4754.986000,-1.240232
4757.986000,-1.241143
4760.985000,-1.242649
4763.985000,-1.220648
4766.984000,-1.242007
4769.985000,-1.236330
4772.985000,-1.218136
4775.985000,-1.243638
4778.984000,-1.244587
4781.984000,-1.235694
4784.984000,-1.237060
4787.982000,-1.250057
4790.982000,-1.236272
4793.983000,-1.233705
4796.983000,-1.245274
4799.983000,-1.229983
4802.981000,-1.252630
4805.981000,-1.253351
4808.981000,-1.255472
4811.981000,-1.253524
4814.982000,-1.263012
4817.982000,-1.261441
4820.980000,-1.266133
4823.980000,-1.264606
4826.980000,-1.263162
4829.980000,-1.272272
4832.980000,-1.256104
4835.979000,-1.257685
4838.979000,-1.270691
4841.980000,-1.274308
4844.978000,-1.281906
4847.978000,-1.263549
4850.978000,-1.267955
4853.978000,-1.287033
4856.978000,-1.282521
4859.977000,-1.287420
4862.977000,-1.281257
4865.977000,-1.290204
4868.977000,-1.292264
4871.977000,-1.295541
4874.975000,-1.294559
4877.975000,-1.302113
4880.976000,-1.304234
4883.976000,-1.280135
4886.976000,-1.282987
4889.976000,-1.311383
4892.974000,-1.316533
4895.974000,-1.319185
4898.974000,-1.315670
4901.975000,-1.319069
4904.975000,-1.322404
4907.973000,-1.328513
4910.973000,-1.331654
4913.973000,-1.329740
4916.972000,-1.332160
4919.972000,-1.324654
4922.971000,-1.337212
4925.972000,-1.345649
4928.972000,-1.339561
4931.972000,-1.352047
4934.972000,-1.354733
4937.972000,-1.353183
4940.970000,-1.359808
4943.970000,-1.353812
4946.971000,-1.366784
4949.971000,-1.368858
4952.971000,-1.373222
4955.969000,-1.373834
4958.969000,-1.378101
4961.969000,-1.377309
4964.969000,-1.377472
4967.970000,-1.383006
4970.968000,-1.388523
4973.968000,-1.393884
4976.968000,-1.393694
4979.968000,-1.398953
4982.968000,-1.403858
4985.968000,-1.403943
4988.966000,-1.406996
4991.967000,-1.412262
4994.967000,-1.410511
4997.967000,-1.414155
5000.967000,-1.415682
5003.965000,-1.407856
5006.965000,-1.413098
5009.965000,-1.429616
5012.966000,-1.414441
5015.966000,-1.421148
5018.964000,-1.432183
5021.964000,-1.430374
5024.964000,-1.442697
5027.964000,-1.444611
5030.964000,-1.435358
5033.965000,-1.444944
5036.963000,-1.426400
5039.963000,-1.431244
5042.963000,-1.448969
5045.963000,-1.447545
5048.963000,-1.446909
5051.961000,-1.429963
5054.961000,-1.446868
5057.962000,-1.460599
5060.962000,-1.454507
5063.962000,-1.451128
5066.960000,-1.462591
5069.960000,-1.465582
5072.960000,-1.467846
5075.960000,-1.460844
5078.961000,-1.458682
5081.961000,-1.466014
5084.959000,-1.474132
5087.959000,-1.466898
5090.959000,-1.452369
5093.959000,-1.450516
5096.959000,-1.461877
5099.958000,-1.476304
5102.958000,-1.475900
5105.958000,-1.480142
5108.958000,-1.484813
5111.958000,-1.475522
5114.956000,-1.456006
5117.956000,-1.453276
5120.956000,-1.459083
5123.957000,-1.483066
5126.957000,-1.486003
5129.955000,-1.477049
5132.955000,-1.456360
5135.955000,-1.460956
5138.955000,-1.471379
5141.955000,-1.481716
5144.956000,-1.454990
5147.954000,-1.459484
5150.954000,-1.467731
5153.954000,-1.459246
5156.953000,-1.456078
5159.953000,-1.483487
5162.953000,-1.477831
5165.954000,-1.457516
5168.954000,-1.476637
5171.952000,-1.477600
5174.952000,-1.459004
5177.952000,-1.458359
5180.952000,-1.480068
5183.952000,-1.465538
5186.950000,-1.453871
5189.951000,-1.454976
5192.951000,-1.454976
5195.951000,-1.451658
5198.950000,-1.471355
5201.950000,-1.455272
5204.950000,-1.451094
5207.950000,-1.444033
5210.949000,-1.457009
5213.949000,-1.465491
5216.949000,-1.443547
5219.949000,-1.441960
5222.949000,-1.437119
5225.947000,-1.448568
5228.947000,-1.452036
5231.948000,-1.430221
5234.948000,-1.438574
5237.948000,-1.448024
5240.948000,-1.450846
5243.946000,-1.425397
5246.946000,-1.432271
5249.946000,-1.445502
5252.946000,-1.422457
5255.947000,-1.439271
5258.945000,-1.420733
5261.945000,-1.412303
5264.945000,-1.414230
5267.945000,-1.413350
5270.945000,-1.429069
5273.943000,-1.405817
5276.944000,-1.416732
5279.944000,-1.422372
5282.944000,-1.400731
5285.944000,-1.412677
5288.944000,-1.407866
5291.942000,-1.390233
5294.942000,-1.388289
5297.942000,-1.395299
5300.942000,-1.411946
5303.942000,-1.404402
5306.942000,-1.400677
5309.942000,-1.381242
5312.942000,-1.384787
5315.940000,-1.376792
5318.940000,-1.372920
5321.941000,-1.368263
5324.941000,-1.389737
5327.941000,-1.369724
5330.939000,-1.386535
5333.939000,-1.366930
5336.939000,-1.381079
5339.939000,-1.358782
5342.940000,-1.380610
5345.938000,-1.375956
5348.938000,-1.357333
5351.938000,-1.363272
5354.938000,-1.362854
5357.938000,-1.350198
5360.936000,-1.369310
5363.937000,-1.362681
5366.937000,-1.343804
5369.937000,-1.372502
5372.937000,-1.365835
5375.937000,-1.343158
5378.935000,-1.350025
5381.935000,-1.362983
5384.935000,-1.364346
5387.936000,-1.363344
5390.936000,-1.356222
5393.934000,-1.340054
5396.934000,-1.352357
5399.934000,-1.350487
5402.934000,-1.334227
5405.934000,-1.355532
5408.935000,-1.357612
5411.933000,-1.344721
5414.933000,-1.331090
5417.933000,-1.332609
5420.933000,-1.337916
5423.933000,-1.357157
5426.931000,-1.352476
5429.932000,-1.349236
5432.932000,-1.339411
5435.932000,-1.333789
5438.932000,-1.359359
5441.930000,-1.355542
5444.930000,-1.342172
5447.930000,-1.332290
5450.930000,-1.334860
5453.931000,-1.347822
5456.929000,-1.366648
5459.929000,-1.371839
5462.929000,-1.365934
5465.929000,-1.363928
5468.929000,-1.370724
5471.929000,-1.359206
5474.928000,-1.351724
5477.928000,-1.374229
5480.928000,-1.366264
5483.928000,-1.364612
5486.928000,-1.373974
5489.926000,-1.361967
5492.926000,-1.354321
5495.927000,-1.371931
5498.927000,-1.383547
5501.927000,-1.384335
5504.925000,-1.391372
5507.925000,-1.378509
5510.925000,-1.377128
5513.925000,-1.388731
5516.925000,-1.390485
5519.926000,-1.390872
5522.924000,-1.380698
5525.924000,-1.392361
5528.924000,-1.401414
5531.924000,-1.388384
5534.924000,-1.389384
5537.922000,-1.405466
5540.923000,-1.405364
5543.923000,-1.403869
5546.923000,-1.395149
5549.923000,-1.401360
5552.921000,-1.414009
5555.921000,-1.414805
5558.921000,-1.412075
5561.922000,-1.416681
5564.922000,-1.414183
5567.922000,-1.424211
5570.920000,-1.426591
5573.920000,-1.416824
5576.920000,-1.402067
5579.920000,-1.421770
5582.920000,-1.434566
5585.919000,-1.434834
5588.919000,-1.434090
5591.919000,-1.433689
5594.919000,-1.438475
5597.919000,-1.435881
5600.917000,-1.439981
5603.917000,-1.434515
5606.918000,-1.436065
5609.918000,-1.444924
5612.918000,-1.429385
5615.916000,-1.427305
5618.916000,-1.447460
5621.916000,-1.444771
5624.916000,-1.445883
5627.917000,-1.450064
5630.917000,-1.439597
5633.915000,-1.434127
5636.915000,-1.453990
5639.915000,-1.451920
5642.914000,-1.454133
5645.914000,-1.457237
5648.914000,-1.446583
5651.915000,-1.436857
5654.915000,-1.456934
5657.913000,-1.451182
5660.913000,-1.445277
5663.913000,-1.463760
5666.913000,-1.455442
5669.913000,-1.464345
5672.912000,-1.464158
5675.912000,-1.448612
5678.912000,-1.471062
5681.912000,-1.461816
5684.912000,-1.467422
5687.912000,-1.472517
5690.910000,-1.452525
5693.911000,-1.452158
5696.911000,-1.468217
5699.911000,-1.477586
5702.911000,-1.478103
5705.909000,-1.457295
5708.909000,-1.472123
5711.909000,-1.481947
5714.909000,-1.456441
5717.910000,-1.457740
5720.908000,-1.471392
5723.908000,-1.478018
5726.908000,-1.463159
5729.908000,-1.485731
5732.908000,-1.459637
5735.906000,-1.474622
5738.907000,-1.488083
5741.907000,-1.482736
5744.907000,-1.463917
5747.907000,-1.482743
5750.907000,-1.485473
5753.905000,-1.478643
5756.905000,-1.465565
5759.906000,-1.483015
5762.906000,-1.463101
5765.906000,-1.483756
5768.904000,-1.473772
5771.904000,-1.472181
5774.904000,-1.472089
5777.904000,-1.467911
5780.904000,-1.476920
5783.903000,-1.459484
5786.903000,-1.480941
5789.903000,-1.474605
5792.903000,-1.463845
5795.903000,-1.485840
5798.903000,-1.480312
5801.901000,-1.462764
5804.902000,-1.454895
5807.902000,-1.454976
5810.902000,-1.457332
5813.902000,-1.477175
5816.900000,-1.464889
5819.900000,-1.453827
5822.900000,-1.473313
5825.901000,-1.454966
5828.901000,-1.453603
5831.899000,-1.467466
5834.899000,-1.449969
5837.899000,-1.467904
5840.899000,-1.451913
5843.899000,-1.451468
5846.899000,-1.466510
5849.898000,-1.463213
5852.898000,-1.445583
5855.898000,-1.455792
5858.898000,-1.451522
5861.898000,-1.449432
5864.896000,-1.452872
5867.896000,-1.439454
5870.897000,-1.456914
5873.897000,-1.448011
5876.897000,-1.434178
5879.895000,-1.453436
5882.895000,-1.453997
5885.895000,-1.436901
5888.895000,-1.434556
5891.896000,-1.452930
5894.896000,-1.447715
5897.894000,-1.430021
5900.894000,-1.434946
5903.894000,-1.452148
5906.894000,-1.438574
5909.894000,-1.421529
5912.892000,-1.425003
5915.893000,-1.416317
5918.893000,-1.441252
5921.893000,-1.435929
5924.893000,-1.420988
5927.891000,-1.439308
5930.891000,-1.415933
5933.891000,-1.428049
5936.892000,-1.443551
5939.892000,-1.438288
5942.890000,-1.434562
5945.890000,-1.432169
5948.890000,-1.412405
5951.890000,-1.424908
5954.890000,-1.437047
5957.891000,-1.414791
5960.889000,-1.430874
5963.889000,-1.432329
5966.889000,-1.411572
5969.889000,-1.410035
5972.889000,-1.405310
5975.887000,-1.412772
5978.887000,-1.414040
5981.888000,-1.405239
5984.888000,-1.428188
5987.888000,-1.434005
5990.886000,-1.430520
5993.886000,-1.424259
5996.886000,-1.411840
5999.886000,-1.433743
6002.887000,-1.432461
6005.887000,-1.429123
6008.885000,-1.430034
6011.886000,-1.428681
6014.884000,-1.441552
6017.884000,-1.434977
6020.884000,-1.427124
6023.885000,-1.410015
6026.885000,-1.413421
6029.885000,-1.432360
6032.883000,-1.424806
6035.883000,-1.441297
6038.883000,-1.438700
6041.883000,-1.428124
6044.883000,-1.424327
6047.882000,-1.431241
6050.882000,-1.442772
6053.882000,-1.444145
6056.882000,-1.439961
6059.882000,-1.438088
6062.880000,-1.437265
6065.880000,-1.440828
6068.881000,-1.423653
6071.881000,-1.415845
6074.881000,-1.424565
6077.881000,-1.440103
6080.879000,-1.432489
6083.879000,-1.434117
6086.879000,-1.445281
6089.880000,-1.435266
6092.880000,-1.442007
6095.878000,-1.450948
6098.878000,-1.430347
6101.878000,-1.449330
6104.878000,-1.441341
6107.878000,-1.431142
6110.876000,-1.454225
6113.877000,-1.451566
6116.877000,-1.435514
6119.877000,-1.446110
6122.877000,-1.457390
6125.877000,-1.458206
6128.875000,-1.441677
6131.875000,-1.457794
6134.876000,-1.460742
6137.876000,-1.457386
6140.876000,-1.465130
6143.874000,-1.456924
6146.874000,-1.445753
6149.874000,-1.444621
6152.874000,-1.453412
6155.875000,-1.469057
6158.873000,-1.453854
6161.873000,-1.448419
6164.873000,-1.468560
6167.873000,-1.465511
6170.873000,-1.466619
6173.871000,-1.477158
6176.871000,-1.479269
6179.872000,-1.482699
6182.872000,-1.485388
6185.872000,-1.482865
6188.872000,-1.461534
6191.870000,-1.482043
6194.870000,-1.464603
6197.870000,-1.487002
6200.871000,-1.485425
6203.871000,-1.491191
6206.869000,-1.495814
6209.869000,-1.494927
6212.869000,-1.485544
6215.868000,-1.486105
6218.868000,-1.497680
6221.869000,-1.478004
6224.869000,-1.484925
6227.869000,-1.507729
6230.867000,-1.497711
6233.867000,-1.485779
6236.867000,-1.485595
6239.867000,-1.499478
6242.867000,-1.516143
6245.866000,-1.514004
6248.866000,-1.516217
6251.866000,-1.517224
6254.866000,-1.509211
6257.866000,-1.496582
6260.866000,-1.517914
6263.864000,-1.506573
6266.865000,-1.495576
6269.865000,-1.495773
6272.865000,-1.509558
6275.865000,-1.526657
6278.863000,-1.526307
6281.863000,-1.527833
6284.863000,-1.518250
6287.864000,-1.520888
6290.864000,-1.529706
6293.862000,-1.508895
6296.862000,-1.523727
6299.862000,-1.536118
6302.861000,-1.525834
6305.861000,-1.513219
6308.862000,-1.518532
6311.862000,-1.536658
6314.862000,-1.536495
6317.860000,-1.534109
6320.860000,-1.535819
6323.860000,-1.518685
6326.860000,-1.532212
6329.860000,-1.542040
6332.861000,-1.544338
6335.859000,-1.537971
6338.859000,-1.525304
6341.859000,-1.516030
6344.859000,-1.518821
6347.859000,-1.530601
6350.857000,-1.543308
6353.858000,-1.546190
6356.858000,-1.534880
6359.858000,-1.517944
6362.858000,-1.526576
6365.856000,-1.541642
6368.856000,-1.524995
6371.856000,-1.529574
6374.857000,-1.542624
6377.857000,-1.536720
6380.857000,-1.536492
6383.855000,-1.522717
6386.855000,-1.531413
6389.855000,-1.538929
6392.855000,-1.531304
6395.855000,-1.515201
6398.854000,-1.522979
6401.854000,-1.515524
6404.854000,-1.508820
6407.854000,-1.533239
6410.854000,-1.530417
6413.852000,-1.526113
6416.852000,-1.513131
6419.853000,-1.535961
6422.853000,-1.529183
6425.853000,-1.514973
6428.851000,-1.513892
6431.851000,-1.521140
6434.851000,-1.515344
6437.851000,-1.526933
6440.852000,-1.514375
6443.852000,-1.507222
6446.850000,-1.516173
6449.850000,-1.515473
6452.850000,-1.508895
6455.850000,-1.507743
6458.850000,-1.525410
6461.848000,-1.501838
6464.849000,-1.496008
6467.849000,-1.498316
6470.849000,-1.519953
6473.849000,-1.497313
6476.849000,-1.495770
6479.847000,-1.495933
6482.847000,-1.494763
6485.848000,-1.517224
6488.848000,-1.498554
6491.848000,-1.495773
6494.846000,-1.495753
6497.846000,-1.490936
6500.846000,-1.515541
6503.846000,-1.507382
6506.847000,-1.490602
6509.845000,-1.492822
6512.845000,-1.487081
6515.845000,-1.481009
6518.845000,-1.500478
6521.844000,-1.476162
6524.844000,-1.493883
6527.844000,-1.486574
6530.845000,-1.484708
6533.843000,-1.494672
6536.843000,-1.472405
6539.843000,-1.492625
6542.843000,-1.470750
6545.843000,-1.490215
6548.841000,-1.465681
6551.842000,-1.479326
6554.842000,-1.478140
6557.842000,-1.462067
6560.842000,-1.483035
6563.842000,-1.459943
6566.840000,-1.468486
6569.840000,-1.484208
6572.841000,-1.478004
6575.841000,-1.456095
6578.841000,-1.454871
6581.840000,-1.450530
6584.840000,-1.470549
6587.840000,-1.467374
6590.838000,-1.453501
6593.838000,-1.461177
6596.839000,-1.458005
6599.839000,-1.455319
6602.839000,-1.468339
6605.837000,-1.449731
6608.837000,-1.464121
6611.837000,-1.457845
6614.837000,-1.448378
6617.838000,-1.457407
6620.836000,-1.464508
6623.836000,-1.445315
6626.836000,-1.462268
6629.836000,-1.463267
6632.836000,-1.447202
6635.834000,-1.446229
6638.835000,-1.456254
6641.835000,-1.465603
6644.835000,-1.468798
6647.835000,-1.450060
6650.835000,-1.460691
6653.833000,-1.465729
6656.833000,-1.465916
6659.833000,-1.467792
6662.834000,-1.461031
6665.834000,-1.455037
6668.832000,-1.454976
6671.832000,-1.449755
6674.832000,-1.447654
6677.832000,-1.459249
6680.832000,-1.469288
6683.833000,-1.463835
6686.831000,-1.457702
6689.831000,-1.467388
6692.831000,-1.471457
6695.831000,-1.450397
6698.831000,-1.471304
6701.829000,-1.472599
6704.830000,-1.464277
6707.830000,-1.467884
6710.830000,-1.476216
6713.830000,-1.470637
6716.828000,-1.466905
6719.828000,-1.463465
6722.829000,-1.464481
6725.827000,-1.471616
6728.828000,-1.477763
6731.828000,-1.457821
6734.828000,-1.476009
6737.828000,-1.483943
6740.826000,-1.474186
6743.826000,-1.472062
6746.826000,-1.478313
6749.827000,-1.485850
6752.827000,-1.465052
6755.825000,-1.459395
6758.825000,-1.477076
6761.825000,-1.477460
6764.825000,-1.460718
6767.825000,-1.482553
6770.826000,-1.457740
6773.824000,-1.471820
6776.824000,-1.473275
6779.824000,-1.467031
6782.824000,-1.478555
6785.824000,-1.462965
6788.824000,-1.479857
6791.822000,-1.457974
6794.823000,-1.474064
6797.823000,-1.479449
6800.823000,-1.457067
6803.821000,-1.480975
6806.821000,-1.461452
6809.821000,-1.477450
6812.820000,-1.468448
6815.821000,-1.459786
6818.821000,-1.470430
6821.821000,-1.484929
6824.821000,-1.459800
6827.819000,-1.460881
6830.819000,-1.483022
6833.819000,-1.467292
6836.820000,-1.454568
6839.820000,-1.454976
6842.820000,-1.455000
6845.818000,-1.456978
6848.818000,-1.453599
6851.818000,-1.477719
6854.818000,-1.477419
6857.818000,-1.454670
6860.817000,-1.447949
6863.817000,-1.464964
6866.817000,-1.468115
6869.817000,-1.452032
6872.817000,-1.444853
6875.817000,-1.450010
6878.815000,-1.468271
6881.817000,-1.450550
6884.815000,-1.455217
6887.815000,-1.471137
6890.815000,-1.469635
6893.815000,-1.457750
6896.815000,-1.443738
6899.813000,-1.468299
6902.814000,-1.469720
6905.814000,-1.459086
6908.814000,-1.448320
6911.814000,-1.454211
6914.814000,-1.469342
6917.812000,-1.444332
6920.812000,-1.472089
6923.812000,-1.466171
6926.813000,-1.449387
6929.813000,-1.448884
6932.811000,-1.468615
6935.812000,-1.455445
6938.812000,-1.442752
6941.810000,-1.455299
6944.810000,-1.470427
6947.811000,-1.472171
6950.811000,-1.460735
6953.811000,-1.449200
6956.809000,-1.457614
6959.809000,-1.466324
6962.809000,-1.448711
6965.809000,-1.468764
6968.810000,-1.455894
6971.808000,-1.449632
6974.808000,-1.469417
6977.808000,-1.451060
6980.808000,-1.472334
6983.808000,-1.453205
6986.806000,-1.467843
6989.806000,-1.465735
6992.807000,-1.460337
6995.807000,-1.464607
6998.807000,-1.465171
7001.807000,-1.470039
7004.805000,-1.478307
7007.805000,-1.479826
7010.805000,-1.457533
7013.806000,-1.460361
7016.806000,-1.479105
7019.804000,-1.466048
7022.804000,-1.454286
7025.804000,-1.455704
7028.804000,-1.473799
7031.804000,-1.485381
7034.803000,-1.484647
7037.803000,-1.475451
7040.803000,-1.474285
7043.803000,-1.474309
7046.803000,-1.478099
7049.803000,-1.485680
7052.801000,-1.471701
7055.801000,-1.466089
7058.801000,-1.475318
7061.801000,-1.469900
7064.801000,-1.477188
7067.801000,-1.467269
7070.801000,-1.481998
7073.801000,-1.458229
7076.799000,-1.461731
7079.800000,-1.467466
7082.800000,-1.483209
7085.800000,-1.494451
7088.800000,-1.487298
7091.798000,-1.486238
7094.798000,-1.495297
7097.798000,-1.489780
7100.799000,-1.486176
7103.799000,-1.491442
7106.797000,-1.498999
7109.797000,-1.491279
7112.797000,-1.479969
7115.797000,-1.494186
7118.797000,-1.493101
7121.795000,-1.482933
7124.796000,-1.496103
7127.796000,-1.505421
7130.796000,-1.503877
7133.796000,-1.504663
7136.796000,-1.508711
7139.794000,-1.496552
7142.794000,-1.484388
7145.795000,-1.495250
7148.795000,-1.516163
7151.795000,-1.515269
7154.793000,-1.494328
7157.793000,-1.512716
7160.793000,-1.509663
7163.793000,-1.512794
7166.794000,-1.517839
7169.794000,-1.515820
7172.792000,-1.520426
7175.792000,-1.512787
7178.792000,-1.505846
7181.792000,-1.525243
7184.792000,-1.517666
7187.790000,-1.517683
7190.791000,-1.527330
7193.791000,-1.511768
7196.791000,-1.526854
7199.791000,-1.529700
7202.789000,-1.526956
7205.789000,-1.536964
